Folder: EE-292X-Battery-Modeling/data/T25/3C (part 3)

File: 5.csv
time_s,voltage_v,current_a,chargecapacity_ah,dischargecapacity_ah,charge_energy_wh,discharge_energy_wh,voltagedot_v_per_s,temp_degc
1,3.075,0.000,0.000,0.000,0.000,0.000,0.000,23.636
106,3.517,1.625,0.021,0.000,0.072,0.000,0.003,24.094
212,3.615,1.625,0.069,0.000,0.243,0.000,0.003,24.550
318,3.657,1.625,0.116,0.000,0.417,0.000,0.002,25.049
424,3.657,1.625,0.164,0.000,0.593,0.000,-0.001,25.487
530,3.654,1.625,0.212,0.000,0.768,0.000,-0.002,25.924
636,3.667,1.625,0.260,0.000,0.943,0.000,0.002,26.133
742,3.673,1.625,0.308,0.000,1.119,0.000,-0.004,26.312
848,3.681,1.625,0.356,0.000,1.295,0.000,0.004,26.466
954,3.689,1.625,0.404,0.000,1.471,0.000,-0.003,26.559
1060,3.698,1.625,0.451,0.000,1.648,0.000,-0.002,26.548
1166,3.721,1.625,0.499,0.000,1.825,0.000,0.004,26.547
1272,3.724,1.625,0.547,0.000,2.003,0.000,0.000,26.475
1378,3.734,1.625,0.595,0.000,2.182,0.000,0.000,26.491
1484,3.740,1.625,0.643,0.000,2.361,0.000,-0.002,26.463
1590,3.744,1.625,0.691,0.000,2.540,0.000,-0.002,26.465
1696,3.749,1.625,0.739,0.000,2.719,0.000,-0.001,26.486
1802,3.751,1.625,0.786,0.000,2.898,0.000,-0.001,26.454
1908,3.770,1.625,0.834,0.000,3.079,0.000,0.000,26.444
2014,3.776,1.625,0.882,0.000,3.259,0.000,-0.001,26.470
2120,3.781,1.625,0.930,0.000,3.440,0.000,0.003,26.434
2226,3.793,1.625,0.978,0.000,3.621,0.000,0.004,26.492
2332,3.800,1.625,1.026,0.000,3.803,0.000,0.001,26.540
2438,3.806,1.625,1.074,0.000,3.985,0.000,0.000,26.564
2544,3.812,1.625,1.121,0.000,4.167,0.000,-0.002,26.565
2650,3.822,1.625,1.169,0.000,4.350,0.000,0.000,26.620
2756,3.824,1.625,1.217,0.000,4.533,0.000,-0.003,26.565
2862,3.832,1.625,1.265,0.000,4.716,0.000,-0.001,26.666
2968,3.840,1.625,1.313,0.000,4.900,0.000,0.005,26.644
3074,3.848,1.625,1.361,0.000,5.084,0.000,0.002,26.707
3180,3.856,1.625,1.409,0.000,5.268,0.000,-0.002,26.684
3286,3.867,1.625,1.456,0.000,5.453,0.000,-0.003,26.771
3392,3.880,1.625,1.504,0.000,5.638,0.000,0.000,26.729
3498,3.886,1.625,1.552,0.000,5.824,0.000,0.004,26.690
3604,3.897,1.625,1.600,0.000,6.010,0.000,0.004,26.728
3710,3.907,1.625,1.648,0.000,6.197,0.000,0.003,26.749
3816,3.916,1.625,1.696,0.000,6.384,0.000,-0.001,26.780
3922,3.935,1.625,1.744,0.000,6.572,0.000,0.001,26.766
4028,3.942,1.625,1.791,0.000,6.760,0.000,0.002,26.801
4134,3.957,1.625,1.839,0.000,6.949,0.000,-0.003,26.801
4240,3.975,1.625,1.887,0.000,7.139,0.000,-0.003,26.804
4346,3.990,1.625,1.935,0.000,7.329,0.000,-0.001,26.835
4452,4.003,1.625,1.983,0.000,7.521,0.000,0.002,26.847
4558,4.010,1.625,2.031,0.000,7.712,0.000,0.001,26.847
4664,4.032,1.625,2.079,0.000,7.905,0.000,0.001,26.870
4770,4.044,1.625,2.126,0.000,8.098,0.000,-0.002,26.834
4876,4.060,1.625,2.174,0.000,8.292,0.000,0.001,26.819
4982,4.075,1.625,2.222,0.000,8.487,0.000,0.001,26.839
5088,4.087,1.625,2.270,0.000,8.682,0.000,-0.001,26.818
5194,4.098,1.625,2.318,0.000,8.878,0.000,-0.001,26.808
5300,4.114,1.625,2.366,0.000,9.074,0.000,-0.001,26.833
5406,4.121,1.625,2.414,0.000,9.271,0.000,-0.001,26.825
5512,4.135,1.625,2.461,0.000,9.469,0.000,-0.001,26.904
5618,4.148,1.625,2.509,0.000,9.667,0.000,0.000,26.865
5724,4.166,1.625,2.557,0.000,9.866,0.000,0.000,26.958
5830,4.177,1.625,2.605,0.000,10.066,0.000,-0.001,26.918
5936,4.194,1.625,2.653,0.000,10.266,0.000,-0.001,26.989
6042,4.200,1.537,2.700,0.000,10.463,0.000,0.001,26.988
6148,4.200,1.446,2.744,0.000,10.647,0.000,0.000,26.990
6254,4.200,1.368,2.785,0.000,10.821,0.000,0.000,26.927
6360,4.200,1.264,2.824,0.000,10.984,0.000,0.000,26.864
6466,4.200,1.164,2.859,0.000,11.134,0.000,0.000,26.730
6572,4.200,1.069,2.892,0.000,11.271,0.000,0.000,26.608
6678,4.200,0.989,2.922,0.000,11.398,0.000,0.000,26.469
6784,4.200,0.917,2.950,0.000,11.516,0.000,0.000,26.369
6890,4.200,0.853,2.976,0.000,11.625,0.000,0.000,26.249
6996,4.200,0.796,3.001,0.000,11.727,0.000,0.000,26.156
7102,4.200,0.748,3.023,0.000,11.823,0.000,0.000,26.078
7208,4.200,0.703,3.045,0.000,11.912,0.000,0.000,26.006
7314,4.200,0.660,3.065,0.000,11.997,0.000,0.000,25.864
7420,4.200,0.624,3.084,0.000,12.076,0.000,0.000,25.814
7526,4.200,0.587,3.102,0.000,12.151,0.000,0.000,25.771
7632,4.200,0.554,3.118,0.000,12.221,0.000,0.000,25.732
7738,4.200,0.476,3.133,0.000,12.281,0.000,0.000,25.648
7844,4.200,0.456,3.146,0.000,12.339,0.000,0.000,25.609
7950,4.200,0.442,3.160,0.000,12.395,0.000,0.000,25.765
8056,4.200,0.348,3.171,0.000,12.441,0.000,0.000,25.658
8162,4.200,0.331,3.181,0.000,12.483,0.000,0.000,25.593
8268,4.200,0.313,3.190,0.000,12.523,0.000,-0.002,25.557
8374,4.200,0.298,3.199,0.000,12.562,0.000,-0.001,25.505
8480,4.200,0.288,3.208,0.000,12.598,0.000,0.000,25.492
8586,4.200,0.277,3.216,0.000,12.633,0.000,0.000,25.500
8692,4.200,0.277,3.225,0.000,12.667,0.000,0.000,25.511
8798,4.200,0.251,3.232,0.000,12.699,0.000,0.000,25.556
8904,4.200,0.233,3.239,0.000,12.729,0.000,0.000,25.511
9010,4.200,0.212,3.246,0.000,12.757,0.000,0.000,25.531
9116,4.200,0.207,3.252,0.000,12.783,0.000,0.000,25.553
9222,4.200,0.198,3.258,0.000,12.808,0.000,0.000,25.500
9328,4.200,0.182,3.264,0.000,12.832,0.000,0.000,25.591
9434,4.200,0.176,3.269,0.000,12.854,0.000,0.000,25.557
9540,4.200,0.159,3.274,0.000,12.874,0.000,0.000,25.553
9646,4.200,0.150,3.278,0.000,12.893,0.000,0.000,25.566
9752,4.200,0.138,3.283,0.000,12.911,0.000,0.000,25.539
9858,4.200,0.132,3.287,0.000,12.928,0.000,0.000,25.513
9964,4.200,0.126,3.291,0.000,12.944,0.000,0.000,25.518
10070,4.200,0.115,3.294,0.000,12.959,0.000,0.000,25.476
10176,4.200,0.114,3.297,0.000,12.973,0.000,0.000,25.472
10282,4.200,0.099,3.300,0.000,12.986,0.000,0.000,25.451
10388,4.200,0.099,3.303,0.000,12.998,0.000,0.000,25.461
10494,4.200,0.091,3.306,0.000,13.010,0.000,0.000,25.396
10600,4.200,0.083,3.309,0.000,13.021,0.000,0.000,25.414
10706,4.200,0.077,3.311,0.000,13.031,0.000,0.000,25.316
10812,4.200,0.073,3.313,0.000,13.040,0.000,0.000,25.305
10917,4.192,0.000,3.315,0.000,13.047,0.000,0.000,25.356
11023,4.190,0.000,3.315,0.000,13.047,0.000,0.000,25.221
11129,4.188,0.000,3.315,0.000,13.047,0.000,0.000,25.233
11235,4.187,0.000,3.315,0.000,13.047,0.000,0.000,25.179
11341,4.186,0.000,3.315,0.000,13.047,0.000,0.000,25.141
11447,4.185,0.000,3.315,0.000,13.047,0.000,0.000,25.101
11553,4.184,0.000,3.315,0.000,13.047,0.000,0.000,25.100
11659,4.184,0.000,3.315,0.000,13.047,0.000,0.000,25.102
11765,4.183,0.000,3.315,0.000,13.047,0.000,0.000,25.028
11871,4.183,0.000,3.315,0.000,13.047,0.000,0.000,25.023
11977,4.182,0.000,3.315,0.000,13.047,0.000,0.000,24.950
12083,4.182,0.000,3.315,0.000,13.047,0.000,0.000,25.016
12189,4.181,0.000,3.315,0.000,13.047,0.000,0.000,24.953
12295,4.181,0.000,3.315,0.000,13.047,0.000,0.000,24.952
12401,4.180,0.000,3.315,0.000,13.047,0.000,0.000,24.855
12507,4.180,0.000,3.315,0.000,13.047,0.000,0.000,24.940
12613,4.180,0.000,3.315,0.000,13.047,0.000,0.000,24.882
12719,4.179,0.000,3.315,0.000,13.047,0.000,0.000,24.891
12825,4.179,0.000,3.315,0.000,13.047,0.000,0.000,24.869
12931,4.179,0.000,3.315,0.000,13.047,0.000,0.000,24.895
13037,4.179,0.000,3.315,0.000,13.047,0.000,0.000,24.850
13143,4.178,0.000,3.315,0.000,13.047,0.000,0.000,24.865
13249,4.178,0.000,3.315,0.000,13.047,0.000,0.000,24.839
13355,4.178,0.000,3.315,0.000,13.047,0.000,0.000,24.863
13461,4.178,0.000,3.315,0.000,13.047,0.000,0.000,24.830
13567,4.178,0.000,3.315,0.000,13.047,0.000,0.000,24.872
13673,4.177,0.000,3.315,0.000,13.047,0.000,0.000,24.872
13779,4.177,0.000,3.315,0.000,13.047,0.000,0.000,24.872
13885,4.177,0.000,3.315,0.000,13.047,0.000,0.000,24.872
13991,4.177,0.000,3.315,0.000,13.047,0.000,0.000,24.839
14097,4.176,0.000,3.315,0.000,13.047,0.000,0.000,24.833
14203,4.176,0.000,3.315,0.000,13.047,0.000,0.000,24.828
14309,4.176,0.000,3.315,0.000,13.047,0.000,0.000,24.895
14415,4.176,0.000,3.315,0.000,13.047,0.000,0.000,24.829
14520,3.394,-10.046,3.315,0.056,13.047,0.191,-0.002,25.702
14626,3.257,-10.046,3.315,0.352,13.047,1.172,-0.001,33.926
14732,3.150,-10.047,3.315,0.647,13.047,2.120,-0.001,39.803
14838,3.051,-10.047,3.315,0.943,13.047,3.037,-0.001,44.233
14944,2.953,-10.048,3.315,1.239,13.047,3.925,-0.001,48.105
15050,2.855,-10.048,3.315,1.535,13.047,4.784,-0.001,51.371
15156,2.747,-10.048,3.315,1.831,13.047,5.614,-0.001,54.070
15262,2.635,-10.049,3.315,2.127,13.047,6.410,-0.001,57.125
15368,2.515,-10.050,3.315,2.423,13.047,7.173,-0.001,60.061
15474,3.445,0.000,3.315,2.456,13.047,7.256,0.000,57.559
15580,3.472,0.000,3.315,2.456,13.047,7.256,0.000,49.700
15686,3.494,0.000,3.315,2.456,13.047,7.256,0.000,43.483
15792,3.505,0.000,3.315,2.456,13.047,7.256,0.000,38.882
15898,3.510,0.000,3.315,2.456,13.047,7.256,0.000,35.396
16004,3.514,0.000,3.315,2.456,13.047,7.256,0.000,32.957
16110,3.517,0.000,3.315,2.456,13.047,7.256,0.000,31.155
16216,3.519,0.000,3.315,2.456,13.047,7.256,0.000,29.723
16322,3.520,0.000,3.315,2.456,13.047,7.256,0.000,28.669
16428,3.521,0.000,3.315,2.456,13.047,7.256,0.000,27.843
16534,3.522,0.000,3.315,2.456,13.047,7.256,0.000,27.198
16640,3.523,0.000,3.315,2.456,13.047,7.256,0.000,26.718
16746,3.524,0.000,3.315,2.456,13.047,7.256,0.000,26.321
16852,3.524,0.000,3.315,2.456,13.047,7.256,0.000,26.066
16958,3.525,0.000,3.315,2.456,13.047,7.256,0.000,25.830
17064,3.525,0.000,3.315,2.456,13.047,7.256,0.000,25.625
17170,3.525,0.000,3.315,2.456,13.047,7.256,0.000,25.471
17276,3.525,0.000,3.315,2.456,13.047,7.256,0.000,25.394
17382,3.526,0.000,3.315,2.456,13.047,7.256,0.000,25.323
17488,3.526,0.000,3.315,2.456,13.047,7.256,0.000,25.216
17594,3.526,0.000,3.315,2.456,13.047,7.256,0.000,25.194
17700,3.527,0.000,3.315,2.456,13.047,7.256,0.000,25.141
17806,3.527,0.000,3.315,2.456,13.047,7.256,0.000,25.106
17912,3.527,0.000,3.315,2.456,13.047,7.256,0.000,25.047
18018,3.527,0.000,3.315,2.456,13.047,7.256,0.000,25.038
18124,3.527,0.000,3.315,2.456,13.047,7.256,0.000,24.969
18230,3.527,0.000,3.315,2.456,13.047,7.256,0.000,24.978
18336,3.527,0.000,3.315,2.456,13.047,7.256,0.000,24.965
18442,3.527,0.000,3.315,2.456,13.047,7.256,0.000,24.973
18548,3.528,0.000,3.315,2.456,13.047,7.256,0.000,24.962
18654,3.528,0.000,3.315,2.456,13.047,7.256,0.000,25.011
18760,3.528,0.000,3.315,2.456,13.047,7.256,0.000,25.006
18866,3.528,0.000,3.315,2.456,13.047,7.256,0.000,25.028
18972,3.528,0.000,3.315,2.456,13.047,7.256,0.000,25.140
18980,3.528,0.000,3.315,2.456,13.047,7.256,0.000,25.169

File: 6.csv
time_s,voltage_v,current_a,chargecapacity_ah,dischargecapacity_ah,charge_energy_wh,discharge_energy_wh,voltagedot_v_per_s,temp_degc
1,2.998,0.000,0.000,0.000,0.000,0.000,0.000,25.560
103,3.326,1.625,0.019,0.000,0.064,0.001,0.002,25.174
206,3.462,1.625,0.066,0.000,0.222,0.001,0.001,25.783
309,3.536,1.625,0.112,0.000,0.385,0.001,0.001,25.496
412,3.553,1.625,0.159,0.000,0.550,0.001,0.000,25.761
515,3.559,1.625,0.205,0.000,0.715,0.001,0.000,26.026
618,3.570,1.625,0.252,0.000,0.881,0.001,0.000,25.908
721,3.581,1.625,0.298,0.000,1.047,0.001,0.000,25.955
824,3.592,1.625,0.345,0.000,1.214,0.001,0.000,26.100
927,3.603,1.625,0.391,0.000,1.381,0.001,0.000,26.114
1030,3.614,1.625,0.438,0.000,1.549,0.001,0.000,26.145
1133,3.625,1.625,0.484,0.000,1.717,0.001,0.000,26.118
1236,3.636,1.625,0.531,0.000,1.886,0.001,0.000,26.077
1339,3.646,1.625,0.577,0.000,2.055,0.001,0.000,26.043
1442,3.654,1.625,0.624,0.000,2.225,0.001,0.000,26.026
1545,3.662,1.625,0.670,0.000,2.395,0.001,0.000,25.985
1648,3.669,1.625,0.717,0.000,2.566,0.001,0.000,25.959
1751,3.676,1.625,0.763,0.000,2.737,0.001,0.000,25.948
1854,3.684,1.625,0.810,0.000,2.908,0.001,0.000,25.953
1957,3.693,1.625,0.857,0.000,3.079,0.001,0.000,25.969
2060,3.701,1.625,0.903,0.000,3.251,0.001,0.000,25.941
2163,3.710,1.625,0.950,0.000,3.423,0.001,0.000,25.950
2266,3.719,1.625,0.996,0.000,3.596,0.001,0.000,25.993
2369,3.727,1.625,1.043,0.000,3.769,0.001,0.000,25.969
2472,3.736,1.625,1.089,0.000,3.943,0.001,0.000,25.962
2575,3.744,1.625,1.136,0.000,4.117,0.001,0.000,25.999
2678,3.752,1.625,1.182,0.000,4.291,0.001,0.000,26.013
2781,3.761,1.625,1.229,0.000,4.466,0.001,0.000,26.000
2884,3.769,1.625,1.275,0.000,4.641,0.001,0.000,25.989
2987,3.778,1.625,1.322,0.000,4.816,0.001,0.000,26.150
3090,3.788,1.625,1.368,0.000,4.992,0.001,0.000,25.969
3193,3.797,1.625,1.415,0.000,5.169,0.001,0.000,26.172
3296,3.806,1.625,1.461,0.000,5.345,0.001,0.000,26.644
3399,3.816,1.625,1.508,0.000,5.523,0.001,0.000,26.305
3502,3.827,1.625,1.554,0.000,5.700,0.001,0.000,26.291
3605,3.838,1.625,1.601,0.000,5.879,0.001,0.000,26.281
3708,3.850,1.625,1.647,0.000,6.057,0.001,0.000,26.243
3811,3.862,1.625,1.694,0.000,6.237,0.001,0.000,26.233
3914,3.874,1.625,1.740,0.000,6.417,0.001,0.000,26.271
4017,3.887,1.625,1.787,0.000,6.597,0.001,0.000,26.220
4120,3.901,1.625,1.833,0.000,6.778,0.001,0.000,26.281
4223,3.914,1.625,1.880,0.000,6.960,0.001,0.000,26.300
4326,3.928,1.625,1.926,0.000,7.142,0.001,0.000,26.269
4429,3.941,1.625,1.973,0.000,7.325,0.001,0.000,26.260
4532,3.955,1.625,2.019,0.000,7.509,0.001,0.000,26.279
4635,3.969,1.625,2.066,0.000,7.693,0.001,0.000,26.215
4738,3.982,1.625,2.112,0.000,7.878,0.001,0.000,26.301
4841,3.996,1.625,2.159,0.000,8.063,0.001,0.000,26.237
4944,4.010,1.625,2.205,0.000,8.250,0.001,0.000,26.306
5047,4.023,1.625,2.252,0.000,8.436,0.001,0.000,26.243
5150,4.036,1.625,2.298,0.000,8.624,0.001,0.000,26.238
5253,4.050,1.625,2.345,0.000,8.812,0.001,0.000,26.258
5356,4.064,1.625,2.391,0.000,9.000,0.001,0.000,26.286
5459,4.078,1.625,2.438,0.000,9.190,0.001,0.000,26.267
5562,4.092,1.625,2.484,0.000,9.380,0.001,0.000,26.303
5665,4.107,1.625,2.531,0.000,9.570,0.001,0.000,26.320
5768,4.123,1.625,2.577,0.000,9.762,0.001,0.000,26.326
5871,4.139,1.625,2.624,0.000,9.954,0.001,0.000,26.352
5974,4.156,1.625,2.670,0.000,10.147,0.001,0.000,26.348
6077,4.173,1.625,2.717,0.000,10.340,0.001,0.000,26.342
6180,4.190,1.625,2.763,0.000,10.535,0.001,0.000,26.349
6282,4.200,1.544,2.809,0.000,10.727,0.001,0.000,26.395
6385,4.200,1.377,2.851,0.000,10.902,0.001,0.000,26.318
6488,4.200,1.232,2.888,0.000,11.058,0.001,0.000,26.288
6591,4.200,1.108,2.921,0.000,11.199,0.001,0.000,26.106
6694,4.200,1.006,2.951,0.000,11.325,0.001,0.000,26.007
6797,4.200,0.920,2.979,0.000,11.441,0.001,0.000,25.904
6900,4.200,0.843,3.004,0.000,11.547,0.001,0.000,25.793
7003,4.200,0.777,3.027,0.000,11.644,0.001,0.000,25.688
7106,4.200,0.721,3.049,0.000,11.734,0.001,0.000,25.650
7209,4.200,0.674,3.069,0.000,11.818,0.001,0.000,25.624
7312,4.200,0.632,3.087,0.000,11.896,0.001,0.000,25.522
7415,4.200,0.596,3.105,0.000,11.970,0.001,0.000,25.427
7518,4.200,0.563,3.121,0.000,12.039,0.001,0.000,25.356
7621,4.200,0.530,3.137,0.000,12.105,0.001,0.000,25.337
7724,4.200,0.498,3.152,0.000,12.167,0.001,0.000,25.319
7827,4.200,0.467,3.166,0.000,12.225,0.001,0.000,25.283
7930,4.200,0.436,3.178,0.000,12.279,0.001,0.000,25.225
8033,4.200,0.407,3.191,0.000,12.330,0.001,0.000,25.211
8136,4.200,0.379,3.202,0.000,12.377,0.001,0.000,25.194
8239,4.200,0.352,3.212,0.000,12.421,0.001,0.000,25.159
8342,4.200,0.326,3.222,0.000,12.461,0.001,0.000,25.128
8445,4.200,0.301,3.231,0.000,12.499,0.001,0.000,25.069
8548,4.200,0.279,3.239,0.000,12.534,0.001,0.000,25.110
8651,4.200,0.258,3.247,0.000,12.566,0.001,0.000,25.065
8754,4.200,0.238,3.254,0.000,12.596,0.001,0.000,25.049
8857,4.200,0.219,3.260,0.000,12.623,0.001,0.000,25.009
8960,4.200,0.202,3.266,0.000,12.648,0.001,0.000,25.011
9063,4.200,0.187,3.272,0.000,12.672,0.001,0.000,24.978
9166,4.200,0.172,3.277,0.000,12.693,0.001,0.000,24.914
9269,4.200,0.159,3.282,0.000,12.713,0.001,0.000,24.817
9372,4.200,0.146,3.286,0.000,12.731,0.001,0.000,25.366
9475,4.200,0.135,3.290,0.000,12.748,0.001,0.000,24.908
9578,4.200,0.125,3.294,0.000,12.764,0.001,0.000,24.937
9681,4.200,0.116,3.297,0.000,12.778,0.001,0.000,24.954
9784,4.200,0.107,3.301,0.000,12.791,0.001,0.000,24.985
9887,4.200,0.099,3.303,0.000,12.804,0.001,0.000,24.982
9990,4.200,0.092,3.306,0.000,12.815,0.001,0.000,24.967
10093,4.200,0.086,3.309,0.000,12.826,0.001,0.000,24.969
10196,4.200,0.079,3.311,0.000,12.836,0.001,0.000,24.924
10299,4.200,0.074,3.313,0.000,12.845,0.001,0.000,24.955
10402,4.200,0.069,3.315,0.000,12.854,0.001,0.000,24.914
10505,4.194,0.000,3.317,0.000,12.859,0.001,0.000,24.963
10608,4.192,0.000,3.317,0.000,12.859,0.001,0.000,24.925
10711,4.190,0.000,3.317,0.000,12.859,0.001,0.000,24.887
10814,4.190,0.000,3.317,0.000,12.859,0.001,0.000,24.914
10917,4.188,0.000,3.317,0.000,12.859,0.001,0.000,24.864
11020,4.188,0.000,3.317,0.000,12.859,0.001,0.000,24.893
11123,4.187,0.000,3.317,0.000,12.859,0.001,0.000,24.924
11226,4.186,0.000,3.317,0.000,12.859,0.001,0.000,24.848
11329,4.186,0.000,3.317,0.000,12.859,0.001,0.000,24.894
11432,4.185,0.000,3.317,0.000,12.859,0.001,0.000,24.887
11535,4.185,0.000,3.317,0.000,12.859,0.001,0.000,24.906
11638,4.184,0.000,3.317,0.000,12.859,0.001,0.000,24.940
11741,4.183,0.000,3.317,0.000,12.859,0.001,0.000,24.892
11844,4.183,0.000,3.317,0.000,12.859,0.001,0.000,24.874
11947,4.183,0.000,3.317,0.000,12.859,0.001,0.000,24.881
12050,4.182,0.000,3.317,0.000,12.859,0.001,0.000,24.917
12153,4.182,0.000,3.317,0.000,12.859,0.001,0.000,24.855
12256,4.182,0.000,3.317,0.000,12.859,0.001,0.000,24.891
12359,4.181,0.000,3.317,0.000,12.859,0.001,0.000,24.911
12462,4.181,0.000,3.317,0.000,12.859,0.001,0.000,24.853
12565,4.181,0.000,3.317,0.000,12.859,0.001,0.000,24.867
12668,4.180,0.000,3.317,0.000,12.859,0.001,0.000,24.859
12771,4.180,0.000,3.317,0.000,12.859,0.001,0.000,24.885
12874,4.180,0.000,3.317,0.000,12.859,0.001,0.000,24.867
12977,4.180,0.000,3.317,0.000,12.859,0.001,0.000,24.870
13080,4.180,0.000,3.317,0.000,12.859,0.001,0.000,24.896
13183,4.179,0.000,3.317,0.000,12.859,0.001,0.000,24.916
13286,4.179,0.000,3.317,0.000,12.859,0.001,0.000,24.902
13389,4.179,0.000,3.317,0.000,12.859,0.001,0.000,24.941
13492,4.179,0.000,3.317,0.000,12.859,0.001,0.000,24.885
13595,4.178,0.000,3.317,0.000,12.859,0.001,0.000,24.897
13698,4.179,0.000,3.317,0.000,12.859,0.001,0.000,24.897
13801,4.178,0.000,3.317,0.000,12.859,0.001,0.000,24.904
13904,4.178,0.000,3.317,0.000,12.859,0.001,0.000,24.908
14007,4.178,0.000,3.317,0.000,12.859,0.001,0.000,25.018
14109,3.431,-10.049,3.317,0.104,12.859,0.361,-0.002,26.821
14212,3.300,-10.048,3.317,0.391,12.859,1.327,-0.001,33.126
14315,3.186,-10.046,3.317,0.679,12.859,2.260,-0.002,37.699
14418,3.080,-10.046,3.317,0.966,12.859,3.160,-0.001,40.958
14521,2.979,-10.046,3.317,1.254,12.859,4.030,-0.001,43.330
14624,2.878,-10.046,3.317,1.541,12.859,4.872,-0.001,45.291
14727,2.764,-10.046,3.317,1.828,12.859,5.684,-0.001,47.438
14830,2.628,-10.050,3.317,2.116,12.859,6.459,-0.001,49.516
14933,3.401,0.000,3.317,2.336,12.859,7.025,0.003,51.949
15036,3.467,0.000,3.317,2.336,12.859,7.025,0.000,46.885
15139,3.496,0.000,3.317,2.336,12.859,7.025,0.000,40.795
15242,3.515,0.000,3.317,2.336,12.859,7.025,0.000,36.205
15345,3.525,0.000,3.317,2.336,12.859,7.025,0.000,33.007
15448,3.530,0.000,3.317,2.336,12.859,7.025,0.000,30.807
15551,3.534,0.000,3.317,2.336,12.859,7.025,0.000,29.176
15654,3.537,0.000,3.317,2.336,12.859,7.025,0.000,27.955
15757,3.539,0.000,3.317,2.336,12.859,7.025,0.000,27.187
15860,3.540,0.000,3.317,2.336,12.859,7.025,0.000,26.609
15963,3.542,0.000,3.317,2.336,12.859,7.025,0.000,26.167
16066,3.543,0.000,3.317,2.336,12.859,7.025,0.000,25.838
16169,3.544,0.000,3.317,2.336,12.859,7.025,0.000,25.597
16272,3.544,0.000,3.317,2.336,12.859,7.025,0.000,25.425
16375,3.545,0.000,3.317,2.336,12.859,7.025,0.000,25.314
16478,3.545,0.000,3.317,2.336,12.859,7.025,0.000,25.193
16581,3.545,0.000,3.317,2.336,12.859,7.025,0.000,25.174
16684,3.546,0.000,3.317,2.336,12.859,7.025,0.000,25.049
16787,3.546,0.000,3.317,2.336,12.859,7.025,0.000,25.005
16890,3.546,0.000,3.317,2.336,12.859,7.025,0.000,25.025
16993,3.546,0.000,3.317,2.336,12.859,7.025,0.000,24.985
17096,3.547,0.000,3.317,2.336,12.859,7.025,0.000,24.980
17199,3.547,0.000,3.317,2.336,12.859,7.025,0.000,24.952
17302,3.547,0.000,3.317,2.336,12.859,7.025,0.000,24.917
17405,3.547,0.000,3.317,2.336,12.859,7.025,0.000,24.844
17508,3.547,0.000,3.317,2.336,12.859,7.025,0.000,24.931
17611,3.547,0.000,3.317,2.336,12.859,7.025,0.000,24.899
17714,3.548,0.000,3.317,2.336,12.859,7.025,0.000,24.871
17817,3.548,0.000,3.317,2.336,12.859,7.025,0.000,24.858
17920,3.548,0.000,3.317,2.336,12.859,7.025,0.000,24.889
18023,3.548,0.000,3.317,2.336,12.859,7.025,0.000,24.859
18126,3.548,0.000,3.317,2.336,12.859,7.025,0.000,24.857
18229,3.548,0.000,3.317,2.336,12.859,7.025,0.000,24.889
18332,3.548,0.000,3.317,2.336,12.859,7.025,0.000,24.913
18435,3.548,0.000,3.317,2.336,12.859,7.025,0.000,24.862
18509,3.548,0.000,3.317,2.336,12.859,7.025,0.000,24.898