Folder: EE-292X-Battery-Modeling/data/T25/3C

Note: README.md
# ee292x
Machine Learning project for Autumn 2019 EE292X at Stanford

File: 1.csv
time_s,voltage_v,current_a,chargecapacity_ah,dischargecapacity_ah,charge_energy_wh,discharge_energy_wh,voltagedot_v_per_s,temp_degc
1,3.008,0.000,0.000,0.000,0.000,0.000,0.000,24.344
102,3.331,1.625,0.019,0.000,0.062,0.001,0.002,24.350
204,3.463,1.625,0.065,0.000,0.219,0.001,0.001,24.525
306,3.535,1.625,0.111,0.000,0.380,0.001,0.000,24.742
408,3.550,1.625,0.157,0.000,0.544,0.001,0.000,24.946
510,3.557,1.625,0.203,0.000,0.707,0.001,0.000,25.237
612,3.566,1.625,0.249,0.000,0.871,0.001,0.000,25.412
714,3.576,1.625,0.295,0.000,1.036,0.001,0.000,25.578
816,3.586,1.625,0.341,0.000,1.201,0.001,0.000,25.632
918,3.597,1.625,0.387,0.000,1.366,0.001,0.000,25.710
1020,3.607,1.625,0.433,0.000,1.532,0.001,0.000,25.809
1122,3.618,1.625,0.479,0.000,1.698,0.001,0.000,25.843
1224,3.630,1.625,0.526,0.000,1.865,0.001,0.000,25.774
1326,3.640,1.625,0.572,0.000,2.033,0.001,0.000,25.796
1428,3.649,1.625,0.618,0.000,2.200,0.001,0.000,25.705
1530,3.656,1.625,0.664,0.000,2.369,0.001,0.000,25.703
1632,3.663,1.625,0.710,0.000,2.537,0.001,0.000,25.743
1734,3.670,1.625,0.756,0.000,2.706,0.001,0.000,25.705
1836,3.677,1.625,0.802,0.000,2.875,0.001,0.000,25.764
1938,3.685,1.625,0.848,0.000,3.045,0.001,0.000,25.686
2040,3.693,1.625,0.894,0.000,3.215,0.001,0.000,25.743
2142,3.701,1.625,0.940,0.000,3.385,0.001,0.000,25.725
2244,3.710,1.625,0.986,0.000,3.556,0.001,0.000,25.720
2346,3.719,1.625,1.032,0.000,3.727,0.001,0.000,25.858
2448,3.727,1.625,1.078,0.000,3.898,0.001,0.000,25.724
2550,3.736,1.625,1.124,0.000,4.070,0.001,0.000,26.186
2652,3.744,1.625,1.170,0.000,4.242,0.001,0.000,26.251
2754,3.752,1.625,1.216,0.000,4.415,0.001,0.000,26.116
2856,3.760,1.625,1.262,0.000,4.588,0.001,0.000,25.922
2958,3.769,1.625,1.308,0.000,4.761,0.001,0.000,25.930
3060,3.778,1.625,1.355,0.000,4.935,0.001,0.000,25.910
3162,3.787,1.625,1.401,0.000,5.109,0.001,0.000,25.983
3264,3.796,1.625,1.447,0.000,5.284,0.001,0.000,25.915
3366,3.806,1.625,1.493,0.000,5.459,0.001,0.000,25.983
3468,3.816,1.625,1.539,0.000,5.634,0.001,0.000,25.894
3570,3.827,1.625,1.585,0.000,5.810,0.001,0.000,25.939
3672,3.838,1.625,1.631,0.000,5.987,0.001,0.000,25.951
3774,3.850,1.625,1.677,0.000,6.164,0.001,0.000,25.917
3876,3.862,1.625,1.723,0.000,6.341,0.001,0.000,25.951
3978,3.874,1.625,1.769,0.000,6.519,0.001,0.000,25.992
4080,3.887,1.625,1.815,0.000,6.698,0.001,0.000,25.973
4182,3.900,1.625,1.861,0.000,6.877,0.001,0.000,25.903
4284,3.913,1.625,1.907,0.000,7.057,0.001,0.000,25.959
4386,3.926,1.625,1.953,0.000,7.238,0.001,0.000,25.939
4488,3.939,1.625,1.999,0.000,7.419,0.001,0.000,25.941
4590,3.953,1.625,2.045,0.000,7.601,0.001,0.000,25.978
4692,3.966,1.625,2.091,0.000,7.783,0.001,0.000,25.961
4794,3.979,1.625,2.137,0.000,7.966,0.001,0.000,25.970
4896,3.992,1.625,2.183,0.000,8.149,0.001,0.000,25.980
4998,4.005,1.625,2.230,0.000,8.334,0.001,0.000,26.010
5100,4.018,1.625,2.276,0.000,8.518,0.001,0.000,25.984
5202,4.031,1.625,2.322,0.000,8.704,0.001,0.000,26.000
5304,4.044,1.625,2.368,0.000,8.890,0.001,0.000,25.976
5406,4.057,1.625,2.414,0.000,9.076,0.001,0.000,25.993
5508,4.071,1.625,2.460,0.000,9.263,0.001,0.000,26.028
5610,4.085,1.625,2.506,0.000,9.451,0.001,0.000,26.004
5712,4.099,1.625,2.552,0.000,9.639,0.001,0.000,25.990
5814,4.115,1.625,2.598,0.000,9.829,0.001,0.000,26.022
5916,4.131,1.625,2.644,0.000,10.018,0.001,0.000,26.037
6018,4.148,1.625,2.690,0.000,10.209,0.001,0.000,26.067
6120,4.166,1.625,2.736,0.000,10.401,0.001,0.000,26.104
6222,4.184,1.625,2.782,0.000,10.593,0.001,0.000,26.071
6324,4.200,1.602,2.828,0.000,10.785,0.001,0.000,26.122
6426,4.200,1.412,2.871,0.000,10.964,0.001,0.000,26.104
6528,4.200,1.272,2.908,0.000,11.123,0.001,0.000,26.018
6630,4.200,1.152,2.943,0.000,11.267,0.001,0.000,25.947
6732,4.200,1.052,2.974,0.000,11.398,0.001,0.000,25.806
6834,4.200,0.964,3.002,0.000,11.518,0.001,0.000,25.690
6936,4.200,0.889,3.029,0.000,11.628,0.001,0.000,25.601
7038,4.200,0.824,3.053,0.000,11.730,0.001,0.000,25.529
7140,4.200,0.767,3.075,0.000,11.824,0.001,0.000,25.386
7242,4.200,0.715,3.096,0.000,11.912,0.001,0.000,25.291
7344,4.200,0.668,3.116,0.000,11.995,0.001,0.000,25.257
7446,4.200,0.625,3.134,0.000,12.071,0.001,0.000,25.205
7548,4.200,0.584,3.151,0.000,12.143,0.001,0.000,25.138
7650,4.200,0.544,3.167,0.000,12.210,0.001,0.000,25.035
7752,4.200,0.507,3.182,0.000,12.273,0.001,0.000,25.049
7854,4.200,0.470,3.196,0.000,12.331,0.001,0.000,24.983
7956,4.200,0.436,3.209,0.000,12.385,0.001,0.000,24.980
8058,4.200,0.405,3.221,0.000,12.435,0.001,0.000,24.936
8160,4.200,0.374,3.232,0.000,12.481,0.001,0.000,24.833
8262,4.200,0.345,3.242,0.000,12.524,0.001,0.000,24.870
8364,4.200,0.319,3.251,0.000,12.563,0.001,0.000,24.835
8466,4.200,0.293,3.260,0.000,12.600,0.001,0.000,24.843
8568,4.200,0.270,3.268,0.000,12.633,0.001,0.000,24.814
8670,4.200,0.249,3.275,0.000,12.664,0.001,0.000,24.774
8772,4.200,0.228,3.282,0.000,12.693,0.001,0.000,24.771
8874,4.200,0.209,3.288,0.000,12.719,0.001,0.000,24.717
8976,4.200,0.193,3.294,0.000,12.743,0.001,0.000,24.726
9078,4.200,0.178,3.299,0.000,12.765,0.001,0.000,24.725
9180,4.200,0.164,3.304,0.000,12.785,0.001,0.000,24.759
9282,4.200,0.151,3.309,0.000,12.804,0.001,0.000,24.731
9384,4.200,0.139,3.313,0.000,12.821,0.001,0.000,24.693
9486,4.200,0.128,3.317,0.000,12.837,0.001,0.000,24.678
9588,4.200,0.118,3.320,0.000,12.851,0.001,0.000,24.684
9690,4.200,0.109,3.323,0.000,12.865,0.001,0.000,24.702
9792,4.200,0.102,3.326,0.000,12.878,0.001,0.000,24.661
9894,4.200,0.096,3.329,0.000,12.889,0.001,0.000,24.621
9996,4.200,0.089,3.332,0.000,12.900,0.001,0.000,24.645
10098,4.200,0.082,3.334,0.000,12.910,0.001,0.000,24.646
10200,4.200,0.077,3.336,0.000,12.920,0.001,0.000,24.621
10302,4.200,0.071,3.338,0.000,12.928,0.001,0.000,24.674
10404,4.200,0.067,3.340,0.000,12.937,0.001,0.000,24.635
10505,4.193,0.000,3.341,0.000,12.939,0.001,0.000,24.676
10607,4.192,0.000,3.341,0.000,12.939,0.001,0.000,24.610
10709,4.190,0.000,3.341,0.000,12.939,0.001,0.000,24.622
10811,4.189,0.000,3.341,0.000,12.939,0.001,0.000,24.621
10913,4.188,0.000,3.341,0.000,12.939,0.001,0.000,24.629
11015,4.187,0.000,3.341,0.000,12.939,0.001,0.000,24.620
11117,4.187,0.000,3.341,0.000,12.939,0.001,0.000,24.601
11219,4.186,0.000,3.341,0.000,12.939,0.001,0.000,24.599
11321,4.185,0.000,3.341,0.000,12.939,0.001,0.000,24.561
11423,4.185,0.000,3.341,0.000,12.939,0.001,0.000,24.573
11525,4.184,0.000,3.341,0.000,12.939,0.001,0.000,24.579
11627,4.184,0.000,3.341,0.000,12.939,0.001,0.000,24.619
11729,4.183,0.000,3.341,0.000,12.939,0.001,0.000,24.584
11831,4.183,0.000,3.341,0.000,12.939,0.001,0.000,24.597
11933,4.182,0.000,3.341,0.000,12.939,0.001,0.000,24.651
12035,4.182,0.000,3.341,0.000,12.939,0.001,0.000,24.596
12137,4.181,0.000,3.341,0.000,12.939,0.001,0.000,24.578
12239,4.181,0.000,3.341,0.000,12.939,0.001,0.000,24.592
12341,4.181,0.000,3.341,0.000,12.939,0.001,0.000,24.582
12443,4.180,0.000,3.341,0.000,12.939,0.001,0.000,24.556
12545,4.180,0.000,3.341,0.000,12.939,0.001,0.000,24.593
12647,4.180,0.000,3.341,0.000,12.939,0.001,0.000,24.604
12749,4.180,0.000,3.341,0.000,12.939,0.001,0.000,24.571
12851,4.179,0.000,3.341,0.000,12.939,0.001,0.000,24.553
12953,4.179,0.000,3.341,0.000,12.939,0.001,0.000,24.544
13055,4.179,0.000,3.341,0.000,12.939,0.001,0.000,24.582
13157,4.179,0.000,3.341,0.000,12.939,0.001,0.000,24.556
13259,4.178,0.000,3.341,0.000,12.939,0.001,0.000,24.553
13361,4.178,0.000,3.341,0.000,12.939,0.001,0.000,24.581
13463,4.178,0.000,3.341,0.000,12.939,0.001,0.000,24.629
13565,4.178,0.000,3.341,0.000,12.939,0.001,0.000,24.596
13667,4.178,0.000,3.341,0.000,12.939,0.001,0.000,25.139
13769,4.177,0.000,3.341,0.000,12.939,0.001,0.000,24.660
13871,4.177,0.000,3.341,0.000,12.939,0.001,0.000,24.614
13973,4.177,0.000,3.341,0.000,12.939,0.001,0.000,24.590
14075,3.432,-10.049,3.341,0.131,12.939,0.458,-0.002,27.333
14177,3.306,-10.047,3.341,0.416,12.939,1.416,-0.001,33.768
14279,3.190,-10.047,3.341,0.701,12.939,2.341,-0.001,38.144
14381,3.084,-10.046,3.341,0.986,12.939,3.234,-0.001,41.552
14483,2.985,-10.046,3.341,1.270,12.939,4.097,-0.001,44.303
14585,2.883,-10.046,3.341,1.555,12.939,4.933,-0.001,46.856
14687,2.764,-10.046,3.341,1.839,12.939,5.737,-0.001,49.100
14789,2.621,-10.046,3.341,2.124,12.939,6.504,-0.001,51.395
14890,3.443,0.000,3.341,2.305,12.939,6.968,0.001,54.526
14992,3.484,0.000,3.341,2.305,12.939,6.968,0.000,49.150
15094,3.518,0.000,3.341,2.305,12.939,6.968,0.000,42.557
15196,3.533,0.000,3.341,2.305,12.939,6.968,0.000,37.793
15298,3.540,0.000,3.341,2.305,12.939,6.968,0.000,34.264
15400,3.545,0.000,3.341,2.305,12.939,6.968,0.000,31.732
15502,3.548,0.000,3.341,2.305,12.939,6.968,0.000,29.940
15604,3.550,0.000,3.341,2.305,12.939,6.968,0.000,28.657
15706,3.550,0.000,3.341,2.305,12.939,6.968,0.000,27.653
15808,3.552,0.000,3.341,2.305,12.939,6.968,0.000,26.884
15910,3.552,0.000,3.341,2.305,12.939,6.968,0.000,26.344
16012,3.553,0.000,3.341,2.305,12.939,6.968,0.000,25.883
16114,3.553,0.000,3.341,2.305,12.939,6.968,0.000,25.614
16216,3.553,0.000,3.341,2.305,12.939,6.968,0.000,25.333
16318,3.553,0.000,3.341,2.305,12.939,6.968,0.000,25.144
16420,3.554,0.000,3.341,2.305,12.939,6.968,0.000,24.995
16522,3.554,0.000,3.341,2.305,12.939,6.968,0.000,24.883
16624,3.554,0.000,3.341,2.305,12.939,6.968,0.000,24.813
16726,3.554,0.000,3.341,2.305,12.939,6.968,0.000,24.745
16828,3.554,0.000,3.341,2.305,12.939,6.968,0.000,24.673
16930,3.555,0.000,3.341,2.305,12.939,6.968,0.000,24.592
17032,3.555,0.000,3.341,2.305,12.939,6.968,0.000,24.589
17134,3.555,0.000,3.341,2.305,12.939,6.968,0.000,24.550
17236,3.555,0.000,3.341,2.305,12.939,6.968,0.000,24.550
17338,3.555,0.000,3.341,2.305,12.939,6.968,0.000,24.560
17440,3.555,0.000,3.341,2.305,12.939,6.968,0.000,24.540
17542,3.555,0.000,3.341,2.305,12.939,6.968,0.000,24.503
17644,3.555,0.000,3.341,2.305,12.939,6.968,0.000,24.541
17746,3.555,0.000,3.341,2.305,12.939,6.968,0.000,24.539
17848,3.555,0.000,3.341,2.305,12.939,6.968,0.000,24.498
17950,3.555,0.000,3.341,2.305,12.939,6.968,0.000,24.507
18052,3.555,0.000,3.341,2.305,12.939,6.968,0.000,24.503
18154,3.555,0.000,3.341,2.305,12.939,6.968,0.000,24.504
18256,3.555,0.000,3.341,2.305,12.939,6.968,0.000,24.490
18358,3.556,0.000,3.341,2.305,12.939,6.968,0.000,24.482
18453,3.556,0.000,3.341,2.305,12.939,6.968,0.000,24.442

File: 2.csv
time_s,voltage_v,current_a,chargecapacity_ah,dischargecapacity_ah,charge_energy_wh,discharge_energy_wh,voltagedot_v_per_s,temp_degc
1,3.351,0.000,0.000,0.000,0.000,0.000,0.000,24.346
118,3.351,0.000,0.000,0.000,0.000,0.000,0.000,24.349
235,3.351,0.000,0.000,0.000,0.000,0.000,0.000,24.361
352,3.351,0.000,0.000,0.000,0.000,0.000,0.000,24.392
469,3.351,0.000,0.000,0.000,0.000,0.000,0.000,24.423
586,3.351,0.000,0.000,0.000,0.000,0.000,0.000,24.361
703,3.351,0.000,0.000,0.000,0.000,0.000,0.000,24.390
820,3.351,0.000,0.000,0.000,0.000,0.000,0.000,24.398
937,3.351,0.000,0.000,0.000,0.000,0.000,0.000,24.372
1054,3.351,0.000,0.000,0.000,0.000,0.000,0.000,24.377
1171,3.351,0.000,0.000,0.000,0.000,0.000,0.000,24.367
1288,3.351,0.000,0.000,0.000,0.000,0.000,0.000,24.363
1405,3.351,0.000,0.000,0.000,0.000,0.000,0.000,24.437
1522,3.351,0.000,0.000,0.000,0.000,0.000,0.000,24.411
1639,3.351,0.000,0.000,0.000,0.000,0.000,0.000,24.776
1756,3.351,0.000,0.000,0.000,0.000,0.000,0.000,24.655
1873,3.351,0.000,0.000,0.000,0.000,0.000,0.000,24.451
1990,3.351,0.000,0.000,0.000,0.000,0.000,0.000,24.460
2107,3.351,0.000,0.000,0.000,0.000,0.000,0.000,24.460
2224,3.351,0.000,0.000,0.000,0.000,0.000,0.000,24.451
2341,3.351,0.000,0.000,0.000,0.000,0.000,0.000,24.431
2458,3.351,0.000,0.000,0.000,0.000,0.000,0.000,24.405
2575,3.351,0.000,0.000,0.000,0.000,0.000,0.000,24.434
2692,3.351,0.000,0.000,0.000,0.000,0.000,0.000,24.424
2809,3.351,0.000,0.000,0.000,0.000,0.000,0.000,24.408
2926,3.352,0.000,0.000,0.000,0.000,0.000,0.000,24.448
3043,3.351,0.000,0.000,0.000,0.000,0.000,0.000,24.408
3160,3.351,0.000,0.000,0.000,0.000,0.000,0.000,24.372
3277,3.351,0.000,0.000,0.000,0.000,0.000,0.000,24.341
3394,3.351,0.000,0.000,0.000,0.000,0.000,0.000,24.379
3511,3.351,0.000,0.000,0.000,0.000,0.000,0.000,24.439
3627,3.521,1.625,0.012,0.000,0.043,0.000,0.001,24.437
3744,3.555,1.625,0.065,0.000,0.230,0.000,0.000,24.673
3861,3.577,1.625,0.118,0.000,0.418,0.000,0.000,24.859
3978,3.595,1.625,0.171,0.000,0.608,0.000,0.000,24.987
4095,3.612,1.625,0.223,0.000,0.798,0.000,0.000,25.055
4212,3.625,1.625,0.276,0.000,0.989,0.000,0.000,25.077
4329,3.635,1.625,0.329,0.000,1.181,0.000,0.000,25.190
4446,3.644,1.625,0.382,0.000,1.373,0.000,0.000,25.160
4563,3.654,1.625,0.435,0.000,1.566,0.000,0.000,25.179
4680,3.663,1.625,0.488,0.000,1.759,0.000,0.000,25.260
4797,3.673,1.625,0.540,0.000,1.953,0.000,0.000,25.285
4914,3.684,1.625,0.593,0.000,2.147,0.000,0.000,25.291
5031,3.694,1.625,0.646,0.000,2.342,0.000,0.000,25.297
5148,3.705,1.625,0.699,0.000,2.538,0.000,0.000,25.336
5265,3.715,1.625,0.752,0.000,2.734,0.000,0.000,25.402
5382,3.726,1.625,0.805,0.000,2.930,0.000,0.000,25.407
5499,3.735,1.625,0.857,0.000,3.127,0.000,0.000,25.402
5616,3.745,1.625,0.910,0.000,3.325,0.000,0.000,25.409
5733,3.754,1.625,0.963,0.000,3.523,0.000,0.000,25.453
5850,3.764,1.625,1.016,0.000,3.721,0.000,0.000,25.513
5967,3.775,1.625,1.069,0.000,3.921,0.000,0.000,25.494
6084,3.785,1.625,1.122,0.000,4.120,0.000,0.000,25.504
6201,3.796,1.625,1.174,0.000,4.320,0.000,0.000,25.484
6318,3.807,1.625,1.227,0.000,4.521,0.000,0.000,25.515
6435,3.819,1.625,1.280,0.000,4.723,0.000,0.000,25.497
6552,3.832,1.625,1.333,0.000,4.925,0.000,0.000,25.557
6669,3.845,1.625,1.386,0.000,5.128,0.000,0.000,25.531
6786,3.859,1.625,1.438,0.000,5.331,0.000,0.000,25.532
6903,3.874,1.625,1.491,0.000,5.535,0.000,0.000,25.551
7020,3.889,1.625,1.544,0.000,5.740,0.000,0.000,25.564
7137,3.904,1.625,1.597,0.000,5.946,0.000,0.000,25.522
7254,3.919,1.625,1.650,0.000,6.153,0.000,0.000,25.558
7371,3.935,1.625,1.703,0.000,6.360,0.000,0.000,25.565
7488,3.950,1.625,1.755,0.000,6.569,0.000,0.000,25.576
7605,3.966,1.625,1.808,0.000,6.778,0.000,0.000,25.550
7722,3.981,1.625,1.861,0.000,6.988,0.000,0.000,25.599
7839,3.997,1.625,1.914,0.000,7.198,0.000,0.000,25.564
7956,4.012,1.625,1.967,0.000,7.410,0.000,0.000,25.548
8073,4.027,1.625,2.020,0.000,7.622,0.000,0.000,25.592
8190,4.042,1.625,2.072,0.000,7.835,0.000,0.000,25.581
8307,4.058,1.625,2.125,0.000,8.049,0.000,0.000,25.563
8424,4.074,1.625,2.178,0.000,8.264,0.000,0.000,25.563
8541,4.092,1.625,2.231,0.000,8.480,0.000,0.000,25.612
8658,4.110,1.625,2.284,0.000,8.696,0.000,0.000,25.615
8775,4.129,1.625,2.337,0.000,8.914,0.000,0.000,25.702
8892,4.149,1.625,2.389,0.000,9.132,0.000,0.000,25.666
9009,4.170,1.625,2.442,0.000,9.352,0.000,0.000,25.686
9126,4.191,1.625,2.495,0.000,9.573,0.000,0.000,25.745
9243,4.200,1.464,2.546,0.000,9.787,0.000,0.000,25.714
9360,4.200,1.285,2.590,0.000,9.974,0.000,0.000,25.645
9477,4.200,1.141,2.630,0.000,10.139,0.000,0.000,25.553
9594,4.200,1.024,2.665,0.000,10.287,0.000,0.000,25.431
9711,4.200,0.925,2.697,0.000,10.419,0.000,0.000,25.315
9828,4.200,0.840,2.725,0.000,10.540,0.000,0.000,25.205
9945,4.200,0.768,2.751,0.000,10.649,0.000,0.000,25.081
10062,4.200,0.705,2.775,0.000,10.750,0.000,0.000,25.092
10179,4.200,0.647,2.797,0.000,10.842,0.000,0.000,24.966
10296,4.200,0.594,2.817,0.000,10.927,0.000,0.000,24.864
10413,4.200,0.543,2.836,0.000,11.004,0.000,0.000,24.870
10530,4.200,0.496,2.853,0.000,11.075,0.000,0.000,24.746
10647,4.200,0.452,2.868,0.000,11.140,0.000,0.000,24.717
10764,4.200,0.411,2.882,0.000,11.199,0.000,0.000,24.741
10881,4.200,0.373,2.895,0.000,11.252,0.000,0.000,24.684
10998,4.200,0.337,2.906,0.000,11.301,0.000,0.000,24.639
11115,4.200,0.305,2.917,0.000,11.344,0.000,0.000,24.560
11232,4.200,0.275,2.926,0.000,11.384,0.000,0.000,24.616
11349,4.200,0.248,2.935,0.000,11.420,0.000,0.000,24.505
11466,4.200,0.224,2.942,0.000,11.452,0.000,0.000,24.525
11583,4.200,0.202,2.949,0.000,11.481,0.000,0.000,24.509
11700,4.200,0.181,2.955,0.000,11.507,0.000,0.000,24.456
11817,4.200,0.164,2.961,0.000,11.530,0.000,0.000,24.459
11934,4.200,0.148,2.966,0.000,11.551,0.000,0.000,24.457
12051,4.200,0.133,2.971,0.000,11.571,0.000,0.000,24.439
12168,4.200,0.120,2.975,0.000,11.588,0.000,0.000,24.475
12285,4.200,0.110,2.978,0.000,11.603,0.000,0.000,24.440
12402,4.200,0.098,2.982,0.000,11.618,0.000,0.000,24.413
12519,4.200,0.090,2.985,0.000,11.630,0.000,0.000,24.405
12636,4.200,0.082,2.988,0.000,11.642,0.000,0.000,24.504
12753,4.200,0.075,2.990,0.000,11.653,0.000,0.000,24.395
12870,4.200,0.069,2.992,0.000,11.663,0.000,0.000,25.056
12986,4.193,0.000,2.993,0.000,11.666,0.000,0.000,25.113
13103,4.191,0.000,2.993,0.000,11.666,0.000,0.000,24.711
13220,4.190,0.000,2.993,0.000,11.666,0.000,0.000,24.545
13337,4.189,0.000,2.993,0.000,11.666,0.000,0.000,24.602
13454,4.188,0.000,2.993,0.000,11.666,0.000,0.000,24.551
13571,4.187,0.000,2.993,0.000,11.666,0.000,0.000,24.542
13688,4.186,0.000,2.993,0.000,11.666,0.000,0.000,24.463
13805,4.186,0.000,2.993,0.000,11.666,0.000,0.000,24.465
13922,4.185,0.000,2.993,0.000,11.666,0.000,0.000,24.443
14039,4.185,0.000,2.993,0.000,11.666,0.000,0.000,24.393
14156,4.184,0.000,2.993,0.000,11.666,0.000,0.000,24.421
14273,4.184,0.000,2.993,0.000,11.666,0.000,0.000,24.419
14390,4.183,0.000,2.993,0.000,11.666,0.000,0.000,24.401
14507,4.183,0.000,2.993,0.000,11.666,0.000,0.000,24.416
14624,4.183,0.000,2.993,0.000,11.666,0.000,0.000,24.372
14741,4.182,0.000,2.993,0.000,11.666,0.000,0.000,24.378
14858,4.182,0.000,2.993,0.000,11.666,0.000,0.000,24.342
14975,4.182,0.000,2.993,0.000,11.666,0.000,0.000,24.369
15092,4.182,0.000,2.993,0.000,11.666,0.000,0.000,24.402
15209,4.181,0.000,2.993,0.000,11.666,0.000,0.000,24.361
15326,4.181,0.000,2.993,0.000,11.666,0.000,0.000,24.379
15443,4.181,0.000,2.993,0.000,11.666,0.000,0.000,24.353
15560,4.181,0.000,2.993,0.000,11.666,0.000,0.000,24.330
15677,4.180,0.000,2.993,0.000,11.666,0.000,0.000,24.345
15794,4.180,0.000,2.993,0.000,11.666,0.000,0.000,24.359
15911,4.180,0.000,2.993,0.000,11.666,0.000,0.000,24.383
16028,4.180,0.000,2.993,0.000,11.666,0.000,0.000,24.374
16145,4.180,0.000,2.993,0.000,11.666,0.000,0.000,24.371
16262,4.180,0.000,2.993,0.000,11.666,0.000,0.000,24.364
16379,4.179,0.000,2.993,0.000,11.666,0.000,0.000,24.368
16496,4.179,0.000,2.993,0.000,11.666,0.000,0.000,24.394
16612,3.440,-9.601,2.993,0.245,11.666,0.858,-0.001,29.134
16729,3.330,-9.600,2.993,0.557,11.666,1.915,-0.001,33.725
16846,3.208,-9.600,2.993,0.869,11.666,2.935,-0.001,37.053
16963,3.095,-9.599,2.993,1.181,11.666,3.917,-0.001,39.472
17080,2.992,-9.599,2.993,1.493,11.666,4.867,-0.001,41.844
17197,2.877,-9.599,2.993,1.805,11.666,5.783,-0.001,43.546
17314,2.735,-9.599,2.993,2.117,11.666,6.659,-0.001,45.933
17431,2.546,-9.599,2.993,2.429,11.666,7.485,-0.002,48.410
17548,3.437,0.000,2.993,2.488,11.666,7.632,0.000,47.059
17665,3.463,0.000,2.993,2.488,11.666,7.632,0.000,40.199
17782,3.486,0.000,2.993,2.488,11.666,7.632,0.000,35.540
17899,3.497,0.000,2.993,2.488,11.666,7.632,0.000,32.246
18016,3.503,0.000,2.993,2.488,11.666,7.632,0.000,30.025
18133,3.507,0.000,2.993,2.488,11.666,7.632,0.000,28.422
18250,3.510,0.000,2.993,2.488,11.666,7.632,0.000,27.373
18367,3.512,0.000,2.993,2.488,11.666,7.632,0.000,26.593
18484,3.513,0.000,2.993,2.488,11.666,7.632,0.000,26.001
18601,3.515,0.000,2.993,2.488,11.666,7.632,0.000,25.599
18718,3.516,0.000,2.993,2.488,11.666,7.632,0.000,25.254
18835,3.516,0.000,2.993,2.488,11.666,7.632,0.000,25.052
18952,3.517,0.000,2.993,2.488,11.666,7.632,0.000,24.853
19069,3.518,0.000,2.993,2.488,11.666,7.632,0.000,24.785
19186,3.518,0.000,2.993,2.488,11.666,7.632,0.000,24.684
19303,3.518,0.000,2.993,2.488,11.666,7.632,0.000,24.608
19420,3.519,0.000,2.993,2.488,11.666,7.632,0.000,24.522
19537,3.519,0.000,2.993,2.488,11.666,7.632,0.000,24.550
19654,3.520,0.000,2.993,2.488,11.666,7.632,0.000,24.477
19771,3.520,0.000,2.993,2.488,11.666,7.632,0.000,24.497
19888,3.520,0.000,2.993,2.488,11.666,7.632,0.000,24.451
20005,3.520,0.000,2.993,2.488,11.666,7.632,0.000,24.417
20122,3.520,0.000,2.993,2.488,11.666,7.632,0.000,24.463
20239,3.521,0.000,2.993,2.488,11.666,7.632,0.000,24.361
20356,3.521,0.000,2.993,2.488,11.666,7.632,0.000,24.368
20473,3.521,0.000,2.993,2.488,11.666,7.632,0.000,24.423
20590,3.521,0.000,2.993,2.488,11.666,7.632,0.000,24.393
20707,3.521,0.000,2.993,2.488,11.666,7.632,0.000,24.406
20824,3.521,0.000,2.993,2.488,11.666,7.632,0.000,24.387
20941,3.521,0.000,2.993,2.488,11.666,7.632,0.000,24.403
21053,3.522,0.000,2.993,2.488,11.666,7.632,0.000,24.363