Folder: EE-292X-Battery-Modeling/data/T25/3C (part 2)

File: 3.csv
time_s,voltage_v,current_a,chargecapacity_ah,dischargecapacity_ah,charge_energy_wh,discharge_energy_wh,voltagedot_v_per_s,temp_degc
1,3.342,0.000,0.000,0.000,0.000,0.000,0.000,24.674
100,3.342,0.000,0.000,0.000,0.000,0.000,0.000,24.639
199,3.342,0.000,0.000,0.000,0.000,0.000,0.000,24.604
298,3.342,0.000,0.000,0.000,0.000,0.000,0.000,24.642
397,3.342,0.000,0.000,0.000,0.000,0.000,0.000,24.672
496,3.342,0.000,0.000,0.000,0.000,0.000,0.000,24.646
595,3.342,0.000,0.000,0.000,0.000,0.000,0.000,24.677
694,3.342,0.000,0.000,0.000,0.000,0.000,0.000,24.667
793,3.342,0.000,0.000,0.000,0.000,0.000,0.000,24.682
892,3.342,0.000,0.000,0.000,0.000,0.000,0.000,24.667
991,3.342,0.000,0.000,0.000,0.000,0.000,0.000,24.666
1090,3.342,0.000,0.000,0.000,0.000,0.000,0.000,24.712
1189,3.342,0.000,0.000,0.000,0.000,0.000,0.000,24.682
1288,3.342,0.000,0.000,0.000,0.000,0.000,0.000,24.682
1387,3.342,0.000,0.000,0.000,0.000,0.000,0.000,24.670
1486,3.342,0.000,0.000,0.000,0.000,0.000,0.000,24.711
1585,3.342,0.000,0.000,0.000,0.000,0.000,0.000,24.738
1684,3.342,0.000,0.000,0.000,0.000,0.000,0.000,25.168
1783,3.342,0.000,0.000,0.000,0.000,0.000,0.000,24.917
1882,3.342,0.000,0.000,0.000,0.000,0.000,0.000,24.889
1981,3.342,0.000,0.000,0.000,0.000,0.000,0.000,24.851
2080,3.342,0.000,0.000,0.000,0.000,0.000,0.000,24.879
2179,3.342,0.000,0.000,0.000,0.000,0.000,0.000,24.917
2278,3.342,0.000,0.000,0.000,0.000,0.000,0.000,24.993
2377,3.342,0.000,0.000,0.000,0.000,0.000,0.000,24.944
2476,3.342,0.000,0.000,0.000,0.000,0.000,0.000,24.945
2575,3.342,0.000,0.000,0.000,0.000,0.000,0.000,24.986
2674,3.342,0.000,0.000,0.000,0.000,0.000,0.000,25.016
2773,3.342,0.000,0.000,0.000,0.000,0.000,0.000,25.028
2872,3.342,0.000,0.000,0.000,0.000,0.000,0.000,25.033
2971,3.342,0.000,0.000,0.000,0.000,0.000,0.000,25.060
3070,3.342,0.000,0.000,0.000,0.000,0.000,0.000,25.071
3169,3.342,0.000,0.000,0.000,0.000,0.000,0.000,25.055
3268,3.342,0.000,0.000,0.000,0.000,0.000,0.000,25.025
3367,3.342,0.000,0.000,0.000,0.000,0.000,0.000,25.052
3466,3.342,0.000,0.000,0.000,0.000,0.000,0.000,25.048
3565,3.342,0.000,0.000,0.000,0.000,0.000,0.000,25.030
3663,3.531,1.625,0.028,0.000,0.100,0.000,0.000,25.304
3762,3.550,1.625,0.073,0.000,0.258,0.000,0.000,25.559
3861,3.567,1.625,0.118,0.000,0.417,0.000,0.000,25.778
3960,3.584,1.625,0.163,0.000,0.577,0.000,0.000,25.950
4059,3.599,1.625,0.207,0.000,0.738,0.000,0.000,26.051
4158,3.613,1.625,0.252,0.000,0.899,0.000,0.000,26.029
4257,3.626,1.625,0.297,0.000,1.061,0.000,0.000,26.087
4356,3.637,1.625,0.341,0.000,1.223,0.000,0.000,26.083
4455,3.646,1.625,0.386,0.000,1.386,0.000,0.000,26.107
4554,3.654,1.625,0.431,0.000,1.549,0.000,0.000,26.106
4653,3.662,1.625,0.475,0.000,1.712,0.000,0.000,26.082
4752,3.670,1.625,0.520,0.000,1.876,0.000,0.000,26.084
4851,3.679,1.625,0.565,0.000,2.040,0.000,0.000,26.049
4950,3.687,1.625,0.609,0.000,2.205,0.000,0.000,26.021
5049,3.696,1.625,0.654,0.000,2.370,0.000,0.000,26.039
5148,3.706,1.625,0.699,0.000,2.535,0.000,0.000,26.048
5247,3.714,1.625,0.744,0.000,2.701,0.000,0.000,26.080
5346,3.723,1.625,0.788,0.000,2.867,0.000,0.000,26.097
5445,3.732,1.625,0.833,0.000,3.034,0.000,0.000,26.082
5544,3.740,1.625,0.878,0.000,3.201,0.000,0.000,26.092
5643,3.748,1.625,0.922,0.000,3.368,0.000,0.000,26.121
5742,3.757,1.625,0.967,0.000,3.536,0.000,0.000,26.097
5841,3.765,1.625,1.012,0.000,3.704,0.000,0.000,26.103
5940,3.774,1.625,1.056,0.000,3.873,0.000,0.000,26.131
6039,3.782,1.625,1.101,0.000,4.042,0.000,0.000,26.124
6138,3.791,1.625,1.146,0.000,4.211,0.000,0.000,26.148
6237,3.801,1.625,1.190,0.000,4.380,0.000,0.000,26.154
6336,3.810,1.625,1.235,0.000,4.551,0.000,0.000,26.150
6435,3.820,1.625,1.280,0.000,4.721,0.000,0.000,26.174
6534,3.830,1.625,1.325,0.000,4.892,0.000,0.000,26.170
6633,3.841,1.625,1.369,0.000,5.063,0.000,0.000,26.243
6732,3.852,1.625,1.414,0.000,5.235,0.000,0.000,26.251
6831,3.864,1.625,1.459,0.000,5.408,0.000,0.000,26.200
6930,3.875,1.625,1.503,0.000,5.581,0.000,0.000,26.258
7029,3.888,1.625,1.548,0.000,5.754,0.000,0.000,26.273
7128,3.900,1.625,1.593,0.000,5.928,0.000,0.000,26.284
7227,3.913,1.625,1.637,0.000,6.103,0.000,0.000,26.224
7326,3.926,1.625,1.682,0.000,6.278,0.000,0.000,26.284
7425,3.939,1.625,1.727,0.000,6.454,0.000,0.000,26.322
7524,3.952,1.625,1.772,0.000,6.630,0.000,0.000,26.312
7623,3.965,1.625,1.816,0.000,6.807,0.000,0.000,26.323
7722,3.978,1.625,1.861,0.000,6.984,0.000,0.000,26.312
7821,3.991,1.625,1.906,0.000,7.163,0.000,0.000,26.312
7920,4.003,1.625,1.950,0.000,7.341,0.000,0.000,26.291
8019,4.016,1.625,1.995,0.000,7.520,0.000,0.000,26.304
8118,4.029,1.625,2.040,0.000,7.700,0.000,0.000,26.282
8217,4.042,1.625,2.084,0.000,7.881,0.000,0.000,26.363
8316,4.055,1.625,2.129,0.000,8.061,0.000,0.000,26.335
8415,4.068,1.625,2.174,0.000,8.243,0.000,0.000,26.382
8514,4.081,1.625,2.218,0.000,8.425,0.000,0.000,26.395
8613,4.095,1.625,2.263,0.000,8.608,0.000,0.000,26.379
8712,4.110,1.625,2.308,0.000,8.791,0.000,0.000,26.401
8811,4.125,1.625,2.353,0.000,8.975,0.000,0.000,26.449
8910,4.141,1.625,2.397,0.000,9.160,0.000,0.000,26.508
9009,4.158,1.625,2.442,0.000,9.345,0.000,0.000,26.553
9108,4.175,1.625,2.487,0.000,9.532,0.000,0.000,26.581
9207,4.192,1.625,2.531,0.000,9.719,0.000,0.000,26.608
9305,4.200,1.514,2.575,0.000,9.901,0.000,0.000,26.597
9404,4.200,1.356,2.614,0.000,10.067,0.000,0.000,26.579
9503,4.200,1.222,2.650,0.000,10.215,0.000,0.000,26.466
9602,4.200,1.107,2.682,0.000,10.350,0.000,0.000,26.376
9701,4.200,1.011,2.711,0.000,10.472,0.000,0.000,26.198
9800,4.200,0.927,2.737,0.000,10.583,0.000,0.000,26.066
9899,4.200,0.854,2.762,0.000,10.686,0.000,0.000,25.948
9998,4.200,0.790,2.784,0.000,10.781,0.000,0.000,25.871
10097,4.200,0.735,2.805,0.000,10.869,0.000,0.000,25.733
10196,4.200,0.687,2.825,0.000,10.951,0.000,0.000,25.606
10295,4.200,0.644,2.843,0.000,11.028,0.000,0.000,25.580
10394,4.200,0.604,2.860,0.000,11.100,0.000,0.000,25.483
10493,4.200,0.565,2.876,0.000,11.167,0.000,0.000,25.440
10592,4.200,0.528,2.891,0.000,11.231,0.000,0.000,25.339
10691,4.200,0.493,2.905,0.000,11.289,0.000,0.000,25.269
10790,4.200,0.459,2.918,0.000,11.344,0.000,0.000,25.236
10889,4.200,0.427,2.931,0.000,11.396,0.000,0.000,25.167
10988,4.200,0.396,2.942,0.000,11.443,0.000,0.000,25.128
11087,4.200,0.368,2.952,0.000,11.487,0.000,0.000,25.118
11186,4.200,0.340,2.962,0.000,11.528,0.000,0.000,25.067
11285,4.200,0.314,2.971,0.000,11.566,0.000,0.000,25.042
11384,4.200,0.291,2.979,0.000,11.601,0.000,0.000,25.027
11483,4.200,0.268,2.987,0.000,11.633,0.000,0.000,24.977
11582,4.200,0.247,2.994,0.000,11.663,0.000,0.000,24.959
11681,4.200,0.228,3.001,0.000,11.690,0.000,0.000,24.873
11780,4.200,0.210,3.007,0.000,11.715,0.000,0.000,24.913
11879,4.200,0.194,3.012,0.000,11.739,0.000,0.000,24.844
11978,4.200,0.178,3.017,0.000,11.760,0.000,0.000,24.855
12077,4.200,0.164,3.022,0.000,11.780,0.000,0.000,24.813
12176,4.200,0.151,3.026,0.000,11.798,0.000,0.000,24.804
12275,4.200,0.140,3.030,0.000,11.815,0.000,0.000,24.846
12374,4.200,0.129,3.034,0.000,11.830,0.000,0.000,24.753
12473,4.200,0.120,3.038,0.000,11.845,0.000,0.000,24.742
12572,4.200,0.110,3.041,0.000,11.858,0.000,0.000,24.775
12671,4.200,0.102,3.044,0.000,11.870,0.000,0.000,24.812
12770,4.200,0.095,3.046,0.000,11.882,0.000,0.000,24.748
12869,4.200,0.088,3.049,0.000,11.892,0.000,0.000,25.206
12968,4.200,0.082,3.051,0.000,11.902,0.000,0.000,25.377
13067,4.200,0.077,3.053,0.000,11.911,0.000,0.000,25.236
13166,4.200,0.073,3.055,0.000,11.920,0.000,0.000,25.090
13265,4.200,0.067,3.057,0.000,11.928,0.000,0.000,25.053
13363,4.194,0.000,3.058,0.000,11.932,0.000,0.000,25.059
13462,4.192,0.000,3.058,0.000,11.932,0.000,0.000,25.055
13561,4.191,0.000,3.058,0.000,11.932,0.000,0.000,25.050
13660,4.189,0.000,3.058,0.000,11.932,0.000,0.000,25.099
13759,4.188,0.000,3.058,0.000,11.932,0.000,0.000,25.109
13858,4.188,0.000,3.058,0.000,11.932,0.000,0.000,25.083
13957,4.187,0.000,3.058,0.000,11.932,0.000,0.000,25.138
14056,4.186,0.000,3.058,0.000,11.932,0.000,0.000,25.130
14155,4.186,0.000,3.058,0.000,11.932,0.000,0.000,25.126
14254,4.185,0.000,3.058,0.000,11.932,0.000,0.000,25.182
14353,4.185,0.000,3.058,0.000,11.932,0.000,0.000,25.147
14452,4.184,0.000,3.058,0.000,11.932,0.000,0.000,25.123
14551,4.184,0.000,3.058,0.000,11.932,0.000,0.000,25.098
14650,4.183,0.000,3.058,0.000,11.932,0.000,0.000,25.111
14749,4.183,0.000,3.058,0.000,11.932,0.000,0.000,25.123
14848,4.183,0.000,3.058,0.000,11.932,0.000,0.000,25.108
14947,4.182,0.000,3.058,0.000,11.932,0.000,0.000,25.071
15046,4.182,0.000,3.058,0.000,11.932,0.000,0.000,25.098
15145,4.182,0.000,3.058,0.000,11.932,0.000,0.000,25.012
15244,4.181,0.000,3.058,0.000,11.932,0.000,0.000,25.050
15343,4.181,0.000,3.058,0.000,11.932,0.000,0.000,24.993
15442,4.181,0.000,3.058,0.000,11.932,0.000,0.000,24.987
15541,4.181,0.000,3.058,0.000,11.932,0.000,0.000,24.980
15640,4.180,0.000,3.058,0.000,11.932,0.000,0.000,24.951
15739,4.180,0.000,3.058,0.000,11.932,0.000,0.000,24.917
15838,4.180,0.000,3.058,0.000,11.932,0.000,0.000,24.906
15937,4.180,0.000,3.058,0.000,11.932,0.000,0.000,24.833
16036,4.180,0.000,3.058,0.000,11.932,0.000,0.000,24.812
16135,4.179,0.000,3.058,0.000,11.932,0.000,0.000,24.778
16234,4.179,0.000,3.058,0.000,11.932,0.000,0.000,24.727
16333,4.179,0.000,3.058,0.000,11.932,0.000,0.000,24.716
16432,4.179,0.000,3.058,0.000,11.932,0.000,0.000,24.701
16531,4.179,0.000,3.058,0.000,11.932,0.000,0.000,24.630
16630,4.178,0.000,3.058,0.000,11.932,0.000,0.000,24.643
16729,4.178,0.000,3.058,0.000,11.932,0.000,0.000,24.630
16828,4.178,0.000,3.058,0.000,11.932,0.000,0.000,24.579
16926,3.511,-9.599,3.058,0.032,11.932,0.113,-0.004,25.089
17025,3.378,-9.598,3.058,0.296,11.932,1.019,-0.001,32.132
17124,3.288,-9.599,3.058,0.560,11.932,1.899,-0.001,37.235
17223,3.194,-9.599,3.058,0.824,11.932,2.755,-0.001,41.345
17322,3.104,-9.599,3.058,1.088,11.932,3.586,-0.001,44.519
17421,3.022,-9.600,3.058,1.352,11.932,4.394,-0.001,47.165
17520,2.941,-9.600,3.058,1.616,11.932,5.181,-0.001,49.512
17619,2.853,-9.601,3.058,1.880,11.932,5.947,-0.001,51.838
17718,2.755,-9.601,3.058,2.144,11.932,6.687,-0.001,53.868
17817,2.645,-9.602,3.058,2.408,11.932,7.400,-0.001,56.512
17916,2.521,-9.603,3.058,2.672,11.932,8.083,-0.001,59.014
17942,3.262,0.000,3.058,2.711,11.932,8.182,0.008,59.946

File: 4.csv
time_s,voltage_v,current_a,chargecapacity_ah,dischargecapacity_ah,charge_energy_wh,discharge_energy_wh,voltagedot_v_per_s,temp_degc
1,2.992,0.000,0.000,0.000,0.000,0.000,0.000,24.412
104,3.329,1.625,0.020,0.000,0.065,0.000,0.002,24.511
208,3.468,1.625,0.067,0.000,0.225,0.000,0.001,24.726
312,3.542,1.625,0.114,0.000,0.390,0.000,0.000,24.941
416,3.558,1.625,0.161,0.000,0.557,0.000,0.000,25.223
520,3.565,1.625,0.208,0.000,0.724,0.000,0.000,25.607
624,3.574,1.625,0.255,0.000,0.891,0.000,0.000,25.873
728,3.584,1.625,0.302,0.000,1.059,0.000,0.000,26.073
832,3.595,1.625,0.349,0.000,1.228,0.000,0.000,26.187
936,3.605,1.625,0.395,0.000,1.397,0.000,0.000,26.286
1040,3.617,1.625,0.442,0.000,1.567,0.000,0.000,26.325
1144,3.628,1.625,0.489,0.000,1.737,0.000,0.000,26.352
1248,3.639,1.625,0.536,0.000,1.907,0.000,0.000,26.370
1352,3.649,1.625,0.583,0.000,2.078,0.000,0.000,26.323
1456,3.658,1.625,0.630,0.000,2.250,0.000,0.000,26.348
1560,3.665,1.625,0.677,0.000,2.422,0.000,0.000,26.337
1664,3.672,1.625,0.724,0.000,2.594,0.000,0.000,26.329
1768,3.680,1.625,0.771,0.000,2.767,0.000,0.000,26.303
1872,3.688,1.625,0.818,0.000,2.940,0.000,0.000,26.324
1976,3.696,1.625,0.865,0.000,3.113,0.000,0.000,26.365
2080,3.704,1.625,0.912,0.000,3.287,0.000,0.000,26.346
2184,3.713,1.625,0.959,0.000,3.461,0.000,0.000,26.331
2288,3.720,1.625,1.006,0.000,3.635,0.000,0.000,26.412
2392,3.728,1.625,1.053,0.000,3.810,0.000,0.000,26.428
2496,3.737,1.625,1.100,0.000,3.985,0.000,0.000,26.438
2600,3.747,1.625,1.147,0.000,4.161,0.000,0.000,26.807
2704,3.754,1.625,1.194,0.000,4.337,0.000,0.002,26.823
2808,3.760,1.625,1.241,0.000,4.514,0.000,0.000,26.671
2912,3.769,1.625,1.288,0.000,4.690,0.000,0.000,26.696
3016,3.778,1.625,1.335,0.000,4.867,0.000,0.000,26.690
3120,3.787,1.625,1.381,0.000,5.045,0.000,0.000,26.750
3224,3.796,1.625,1.428,0.000,5.223,0.000,0.000,26.801
3328,3.806,1.625,1.475,0.000,5.401,0.000,0.000,26.814
3432,3.816,1.625,1.522,0.000,5.580,0.000,0.000,26.912
3536,3.827,1.625,1.569,0.000,5.760,0.000,0.000,26.878
3640,3.840,1.625,1.616,0.000,5.940,0.000,0.000,26.933
3744,3.852,1.625,1.663,0.000,6.120,0.000,0.000,26.902
3848,3.865,1.625,1.710,0.000,6.302,0.000,0.000,26.991
3952,3.878,1.625,1.757,0.000,6.483,0.000,0.000,26.980
4056,3.891,1.625,1.804,0.000,6.666,0.000,0.000,27.004
4160,3.905,1.625,1.851,0.000,6.849,0.000,0.000,26.999
4264,3.918,1.625,1.898,0.000,7.032,0.000,0.000,26.977
4368,3.931,1.625,1.945,0.000,7.217,0.000,0.000,26.995
4472,3.945,1.625,1.992,0.000,7.402,0.000,0.000,27.017
4576,3.958,1.625,2.039,0.000,7.587,0.000,0.000,27.017
4680,3.972,1.625,2.086,0.000,7.773,0.000,0.000,26.972
4784,3.986,1.625,2.133,0.000,7.960,0.000,0.000,27.034
4888,3.999,1.625,2.180,0.000,8.148,0.000,0.000,26.983
4992,4.013,1.625,2.227,0.000,8.336,0.000,0.000,27.019
5096,4.027,1.625,2.274,0.000,8.524,0.000,0.000,26.983
5200,4.040,1.625,2.320,0.000,8.714,0.000,0.000,26.959
5304,4.054,1.625,2.367,0.000,8.904,0.000,0.000,26.969
5408,4.067,1.625,2.414,0.000,9.094,0.000,0.000,26.974
5512,4.082,1.625,2.461,0.000,9.286,0.000,0.000,26.946
5616,4.097,1.625,2.508,0.000,9.478,0.000,0.000,26.938
5720,4.112,1.625,2.555,0.000,9.670,0.000,0.000,26.952
5824,4.128,1.625,2.602,0.000,9.864,0.000,0.000,26.899
5928,4.144,1.625,2.649,0.000,10.058,0.000,0.000,26.913
6032,4.162,1.625,2.696,0.000,10.253,0.000,0.000,26.862
6136,4.179,1.625,2.743,0.000,10.449,0.000,0.000,26.840
6240,4.196,1.625,2.790,0.000,10.645,0.000,0.000,26.889
6344,4.200,1.477,2.835,0.000,10.835,0.000,0.000,26.875
6448,4.200,1.327,2.876,0.000,11.005,0.000,0.000,26.781
6552,4.200,1.196,2.912,0.000,11.158,0.000,0.000,26.654
6656,4.200,1.083,2.945,0.000,11.296,0.000,0.000,26.514
6760,4.200,0.990,2.975,0.000,11.422,0.000,0.000,26.345
6864,4.200,0.908,3.002,0.000,11.537,0.000,0.000,26.143
6968,4.200,0.835,3.027,0.000,11.642,0.000,0.000,26.057
7072,4.200,0.773,3.051,0.000,11.740,0.000,0.000,25.909
7176,4.200,0.720,3.072,0.000,11.830,0.000,0.000,25.768
7280,4.200,0.674,3.092,0.000,11.914,0.000,0.000,25.665
7384,4.200,0.633,3.111,0.000,11.994,0.000,0.000,25.565
7488,4.200,0.596,3.129,0.000,12.068,0.000,0.000,25.538
7592,4.200,0.561,3.145,0.000,12.138,0.000,0.000,25.415
7696,4.200,0.527,3.161,0.000,12.204,0.000,0.000,25.346
7800,4.200,0.494,3.176,0.000,12.266,0.000,0.000,25.339
7904,4.200,0.463,3.190,0.000,12.324,0.000,0.000,25.249
8008,4.200,0.433,3.203,0.000,12.379,0.000,0.000,25.207
8112,4.200,0.403,3.215,0.000,12.429,0.000,0.000,25.170
8216,4.200,0.377,3.226,0.000,12.477,0.000,0.000,25.119
8320,4.200,0.349,3.236,0.000,12.521,0.000,0.000,25.029
8424,4.200,0.324,3.246,0.000,12.561,0.000,0.000,25.019
8528,4.200,0.300,3.255,0.000,12.599,0.000,0.000,25.013
8632,4.200,0.277,3.264,0.000,12.634,0.000,0.000,24.935
8736,4.200,0.257,3.271,0.000,12.667,0.000,0.000,24.944
8840,4.200,0.237,3.278,0.000,12.697,0.000,0.000,24.902
8944,4.200,0.219,3.285,0.000,12.724,0.000,0.000,24.886
9048,4.200,0.202,3.291,0.000,12.750,0.000,0.000,24.852
9152,4.200,0.187,3.297,0.000,12.773,0.000,0.000,24.836
9256,4.200,0.172,3.302,0.000,12.795,0.000,0.000,24.833
9360,4.200,0.159,3.307,0.000,12.815,0.000,0.000,24.827
9464,4.200,0.146,3.311,0.000,12.834,0.000,0.000,24.839
9568,4.200,0.135,3.315,0.000,12.851,0.000,0.000,24.792
9672,4.200,0.125,3.319,0.000,12.866,0.000,0.000,24.832
9776,4.200,0.115,3.322,0.000,12.881,0.000,0.000,24.821
9880,4.200,0.108,3.326,0.000,12.895,0.000,0.000,24.796
9984,4.200,0.099,3.329,0.000,12.907,0.000,0.000,24.830
10088,4.200,0.093,3.331,0.000,12.919,0.000,0.000,24.777
10192,4.200,0.086,3.334,0.000,12.930,0.000,0.000,24.791
10296,4.200,0.079,3.336,0.000,12.940,0.000,0.000,24.795
10400,4.200,0.074,3.338,0.000,12.949,0.000,0.000,24.761
10504,4.200,0.069,3.341,0.000,12.958,0.000,0.000,24.801
10608,4.195,0.000,3.342,0.000,12.965,0.000,0.000,24.788
10712,4.192,0.000,3.342,0.000,12.965,0.000,0.000,24.796
10816,4.191,0.000,3.342,0.000,12.965,0.000,0.000,24.823
10920,4.189,0.000,3.342,0.000,12.965,0.000,0.000,24.776
11024,4.188,0.000,3.342,0.000,12.965,0.000,0.000,24.814
11128,4.188,0.000,3.342,0.000,12.965,0.000,0.000,24.805
11232,4.187,0.000,3.342,0.000,12.965,0.000,0.000,24.810
11336,4.186,0.000,3.342,0.000,12.965,0.000,0.000,24.795
11440,4.186,0.000,3.342,0.000,12.965,0.000,0.000,24.810
11544,4.185,0.000,3.342,0.000,12.965,0.000,0.000,24.822
11648,4.184,0.000,3.342,0.000,12.965,0.000,0.000,24.871
11752,4.184,0.000,3.342,0.000,12.965,0.000,0.000,24.815
11856,4.183,0.000,3.342,0.000,12.965,0.000,0.000,24.821
11960,4.183,0.000,3.342,0.000,12.965,0.000,0.000,24.828
12064,4.183,0.000,3.342,0.000,12.965,0.000,0.000,24.777
12168,4.182,0.000,3.342,0.000,12.965,0.000,0.000,24.875
12272,4.182,0.000,3.342,0.000,12.965,0.000,0.000,24.834
12376,4.182,0.000,3.342,0.000,12.965,0.000,0.000,24.860
12480,4.181,0.000,3.342,0.000,12.965,0.000,0.000,24.864
12584,4.181,0.000,3.342,0.000,12.965,0.000,0.000,24.855
12688,4.181,0.000,3.342,0.000,12.965,0.000,0.000,24.795
12792,4.180,0.000,3.342,0.000,12.965,0.000,0.000,24.863
12896,4.180,0.000,3.342,0.000,12.965,0.000,0.000,24.840
13000,4.180,0.000,3.342,0.000,12.965,0.000,0.000,24.834
13104,4.179,0.000,3.342,0.000,12.965,0.000,0.000,24.826
13208,4.179,0.000,3.342,0.000,12.965,0.000,0.000,24.845
13312,4.179,0.000,3.342,0.000,12.965,0.000,0.000,24.800
13416,4.179,0.000,3.342,0.000,12.965,0.000,0.000,24.889
13520,4.179,0.000,3.342,0.000,12.965,0.000,0.000,24.866
13624,4.178,0.000,3.342,0.000,12.965,0.000,0.000,25.225
13728,4.178,0.000,3.342,0.000,12.965,0.000,0.000,25.102
13832,4.178,0.000,3.342,0.000,12.965,0.000,0.000,25.011
13936,4.178,0.000,3.342,0.000,12.965,0.000,0.000,24.990
14040,4.178,0.000,3.342,0.000,12.965,0.000,0.000,25.047
14144,4.177,0.000,3.342,0.000,12.965,0.000,0.000,25.062
14247,3.364,-10.047,3.342,0.151,12.965,0.515,-0.003,28.767
14351,3.238,-10.046,3.342,0.441,12.965,1.473,-0.001,36.120
14455,3.139,-10.047,3.342,0.731,12.965,2.399,-0.001,41.049
14559,3.042,-10.048,3.342,1.021,12.965,3.296,-0.001,45.083
14663,2.951,-10.047,3.342,1.312,12.965,4.166,-0.001,48.556
14767,2.859,-10.048,3.342,1.602,12.965,5.009,-0.001,51.688
14871,2.765,-10.048,3.342,1.892,12.965,5.825,-0.001,54.383
14975,2.659,-10.049,3.342,2.183,12.965,6.613,-0.001,56.955
15079,2.547,-10.050,3.342,2.473,12.965,7.369,-0.001,59.592
15183,3.417,0.000,3.342,2.587,12.965,7.657,0.000,59.142
15287,3.431,0.000,3.342,2.587,12.965,7.657,0.000,51.663
15391,3.450,0.000,3.342,2.587,12.965,7.657,0.000,45.083
15495,3.465,0.000,3.342,2.587,12.965,7.657,0.000,39.993
15599,3.473,0.000,3.342,2.587,12.965,7.657,0.000,36.509
15703,3.478,0.000,3.342,2.587,12.965,7.657,0.000,33.896
15807,3.481,0.000,3.342,2.587,12.965,7.657,0.000,31.750
15911,3.483,0.000,3.342,2.587,12.965,7.657,0.000,30.314
16015,3.485,0.000,3.342,2.587,12.965,7.657,0.000,29.159
16119,3.487,0.000,3.342,2.587,12.965,7.657,0.000,28.290
16223,3.488,0.000,3.342,2.587,12.965,7.657,0.000,27.514
16327,3.489,0.000,3.342,2.587,12.965,7.657,0.000,27.032
16431,3.490,0.000,3.342,2.587,12.965,7.657,0.000,26.635
16535,3.491,0.000,3.342,2.587,12.965,7.657,0.000,26.262
16639,3.491,0.000,3.342,2.587,12.965,7.657,0.000,25.976
16743,3.492,0.000,3.342,2.587,12.965,7.657,0.000,25.758
16847,3.492,0.000,3.342,2.587,12.965,7.657,0.000,25.594
16951,3.493,0.000,3.342,2.587,12.965,7.657,0.000,25.439
17055,3.493,0.000,3.342,2.587,12.965,7.657,0.000,25.295
17159,3.494,0.000,3.342,2.587,12.965,7.657,0.000,25.220
17263,3.494,0.000,3.342,2.587,12.965,7.657,0.000,25.148
17367,3.494,0.000,3.342,2.587,12.965,7.657,0.000,25.028
17471,3.495,0.000,3.342,2.587,12.965,7.657,0.000,24.991
17575,3.495,0.000,3.342,2.587,12.965,7.657,0.000,24.962
17679,3.495,0.000,3.342,2.587,12.965,7.657,0.000,24.844
17783,3.496,0.000,3.342,2.587,12.965,7.657,0.000,24.834
17887,3.496,0.000,3.342,2.587,12.965,7.657,0.000,24.804
17991,3.496,0.000,3.342,2.587,12.965,7.657,0.000,24.757
18095,3.496,0.000,3.342,2.587,12.965,7.657,0.000,24.725
18199,3.497,0.000,3.342,2.587,12.965,7.657,0.000,24.730
18303,3.497,0.000,3.342,2.587,12.965,7.657,0.000,24.717
18407,3.497,0.000,3.342,2.587,12.965,7.657,0.000,24.709
18511,3.497,0.000,3.342,2.587,12.965,7.657,0.000,24.683
18615,3.497,0.000,3.342,2.587,12.965,7.657,0.000,24.660
18719,3.497,0.000,3.342,2.587,12.965,7.657,0.000,24.656
18720,3.497,0.000,3.342,2.587,12.965,7.657,0.000,24.656