Folder: EE-292X-Battery-Modeling/data/T25/5C

Note: README.md
# ee292x
Machine Learning project for Autumn 2019 EE292X at Stanford

File: 1.csv
time_s,voltage_v,current_a,chargecapacity_ah,dischargecapacity_ah,charge_energy_wh,discharge_energy_wh,voltagedot_v_per_s,temp_degc
1,3.556,0.000,0.000,0.000,0.000,0.000,0.000,24.490
82,3.663,1.625,0.010,0.000,0.036,0.000,0.001,24.528
164,3.682,1.625,0.047,0.000,0.172,0.000,0.000,24.651
246,3.691,1.625,0.084,0.000,0.309,0.000,0.000,24.801
328,3.698,1.625,0.121,0.000,0.446,0.000,0.000,24.979
410,3.705,1.625,0.158,0.000,0.583,0.000,0.000,25.092
492,3.713,1.625,0.195,0.000,0.720,0.000,0.000,25.211
574,3.721,1.625,0.232,0.000,0.858,0.000,0.000,25.288
656,3.729,1.625,0.269,0.000,0.995,0.000,0.000,25.383
738,3.737,1.625,0.306,0.000,1.134,0.000,0.000,25.478
820,3.745,1.625,0.343,0.000,1.272,0.000,0.000,25.531
902,3.754,1.625,0.380,0.000,1.411,0.000,0.000,25.591
984,3.762,1.625,0.417,0.000,1.550,0.000,0.000,25.664
1066,3.770,1.625,0.454,0.000,1.690,0.000,0.000,25.666
1148,3.778,1.625,0.491,0.000,1.829,0.000,0.000,25.758
1230,3.787,1.625,0.528,0.000,1.969,0.000,0.000,25.756
1312,3.795,1.625,0.565,0.000,2.110,0.000,0.000,25.801
1394,3.804,1.625,0.602,0.000,2.250,0.000,0.000,25.756
1476,3.813,1.625,0.639,0.000,2.391,0.000,0.000,25.777
1558,3.822,1.625,0.676,0.000,2.533,0.000,0.000,25.786
1640,3.832,1.625,0.713,0.000,2.674,0.000,0.000,25.796
1722,3.842,1.625,0.750,0.000,2.816,0.000,0.000,25.812
1804,3.852,1.625,0.787,0.000,2.959,0.000,0.000,25.770
1886,3.863,1.625,0.824,0.000,3.102,0.000,0.000,25.775
1968,3.874,1.625,0.861,0.000,3.245,0.000,0.000,25.797
2050,3.885,1.625,0.898,0.000,3.389,0.000,0.000,25.748
2132,3.897,1.625,0.936,0.000,3.533,0.000,0.000,25.767
2214,3.908,1.625,0.973,0.000,3.677,0.000,0.000,25.707
2296,3.920,1.625,1.010,0.000,3.822,0.000,0.000,25.709
2378,3.931,1.625,1.047,0.000,3.967,0.000,0.000,25.688
2460,3.942,1.625,1.084,0.000,4.113,0.000,0.000,25.669
2542,3.954,1.625,1.121,0.000,4.259,0.000,0.000,25.641
2624,3.965,1.625,1.158,0.000,4.406,0.000,0.000,25.616
2706,3.976,1.625,1.195,0.000,4.553,0.000,0.000,25.589
2788,3.987,1.625,1.232,0.000,4.700,0.000,0.000,25.621
2870,3.998,1.625,1.269,0.000,4.848,0.000,0.000,25.622
2952,4.009,1.625,1.306,0.000,4.996,0.000,0.000,25.626
3034,4.020,1.625,1.343,0.000,5.145,0.000,0.000,25.619
3116,4.031,1.625,1.380,0.000,5.294,0.000,0.000,25.645
3198,4.042,1.625,1.417,0.000,5.443,0.000,0.000,25.600
3280,4.054,1.625,1.454,0.000,5.593,0.000,0.000,25.683
3362,4.066,1.625,1.491,0.000,5.744,0.000,0.000,25.690
3444,4.077,1.625,1.528,0.000,5.894,0.000,0.000,25.848
3526,4.090,1.625,1.565,0.000,6.046,0.000,0.000,25.782
3608,4.103,1.625,1.602,0.000,6.197,0.000,0.000,25.986
3690,4.116,1.625,1.639,0.000,6.349,0.000,0.000,26.414
3772,4.130,1.625,1.676,0.000,6.502,0.000,0.000,25.995
3854,4.145,1.625,1.713,0.000,6.655,0.000,0.000,25.855
3936,4.160,1.625,1.750,0.000,6.809,0.000,0.000,25.885
4018,4.176,1.625,1.787,0.000,6.963,0.000,0.000,25.970
4100,4.192,1.625,1.824,0.000,7.118,0.000,0.000,25.964
4182,4.200,1.524,1.860,0.000,7.270,0.000,0.000,25.959
4264,4.200,1.377,1.893,0.000,7.408,0.000,0.000,25.919
4346,4.200,1.263,1.923,0.000,7.535,0.000,0.000,25.920
4428,4.200,1.163,1.951,0.000,7.650,0.000,0.000,25.819
4510,4.200,1.076,1.976,0.000,7.757,0.000,0.000,25.708
4592,4.200,1.001,2.000,0.000,7.857,0.000,0.000,25.580
4674,4.200,0.935,2.022,0.000,7.949,0.000,0.000,25.579
4756,4.200,0.874,2.043,0.000,8.036,0.000,0.000,25.437
4838,4.200,0.821,2.062,0.000,8.117,0.000,0.000,25.350
4920,4.200,0.773,2.080,0.000,8.193,0.000,0.000,25.298
5002,4.200,0.726,2.097,0.000,8.265,0.000,0.000,25.239
5084,4.200,0.684,2.113,0.000,8.332,0.000,0.000,25.209
5166,4.200,0.643,2.128,0.000,8.395,0.000,0.000,25.131
5248,4.200,0.604,2.142,0.000,8.455,0.000,0.000,25.096
5330,4.200,0.569,2.156,0.000,8.511,0.000,0.000,25.021
5412,4.200,0.534,2.168,0.000,8.564,0.000,0.000,24.954
5494,4.200,0.500,2.180,0.000,8.613,0.000,0.000,24.938
5576,4.200,0.468,2.191,0.000,8.660,0.000,0.000,24.923
5658,4.200,0.438,2.201,0.000,8.703,0.000,0.000,24.853
5740,4.200,0.409,2.211,0.000,8.743,0.000,0.000,24.834
5822,4.200,0.381,2.220,0.000,8.781,0.000,0.000,24.804
5904,4.200,0.355,2.228,0.000,8.816,0.000,0.000,24.787
5986,4.200,0.331,2.236,0.000,8.849,0.000,0.000,24.741
6068,4.200,0.307,2.244,0.000,8.880,0.000,0.000,24.716
6150,4.200,0.285,2.250,0.000,8.908,0.000,0.000,24.672
6232,4.200,0.265,2.257,0.000,8.934,0.000,0.000,24.658
6314,4.200,0.246,2.262,0.000,8.959,0.000,0.000,24.660
6396,4.200,0.228,2.268,0.000,8.981,0.000,0.000,24.640
6478,4.200,0.211,2.273,0.000,9.002,0.000,0.000,24.635
6560,4.200,0.195,2.277,0.000,9.022,0.000,0.000,24.623
6642,4.200,0.182,2.282,0.000,9.040,0.000,0.000,24.612
6724,4.200,0.168,2.286,0.000,9.057,0.000,0.000,24.592
6806,4.200,0.156,2.289,0.000,9.072,0.000,0.000,24.561
6888,4.200,0.145,2.293,0.000,9.086,0.000,0.000,24.605
6970,4.200,0.134,2.296,0.000,9.100,0.000,0.000,24.549
7052,4.200,0.125,2.299,0.000,9.112,0.000,0.000,24.561
7134,4.200,0.116,2.302,0.000,9.124,0.000,0.000,24.516
7216,4.200,0.108,2.304,0.000,9.134,0.000,0.000,24.533
7298,4.200,0.100,2.307,0.000,9.144,0.000,0.000,24.474
7380,4.200,0.094,2.309,0.000,9.154,0.000,0.000,24.488
7462,4.200,0.088,2.311,0.000,9.162,0.000,0.000,24.549
7544,4.200,0.082,2.313,0.000,9.170,0.000,0.000,24.465
7626,4.200,0.076,2.315,0.000,9.178,0.000,0.000,24.475
7708,4.200,0.071,2.316,0.000,9.185,0.000,0.000,24.527
7790,4.200,0.068,2.318,0.000,9.192,0.000,0.000,24.455
7871,4.194,0.000,2.318,0.000,9.194,0.000,0.000,24.508
7953,4.192,0.000,2.318,0.000,9.194,0.000,0.000,24.491
8035,4.191,0.000,2.318,0.000,9.194,0.000,0.000,24.485
8117,4.190,0.000,2.318,0.000,9.194,0.000,0.000,24.473
8199,4.190,0.000,2.318,0.000,9.194,0.000,0.000,24.516
8281,4.189,0.000,2.318,0.000,9.194,0.000,0.000,24.462
8363,4.188,0.000,2.318,0.000,9.194,0.000,0.000,24.449
8445,4.188,0.000,2.318,0.000,9.194,0.000,0.000,24.471
8527,4.187,0.000,2.318,0.000,9.194,0.000,0.000,24.460
8609,4.187,0.000,2.318,0.000,9.194,0.000,0.000,24.473
8691,4.186,0.000,2.318,0.000,9.194,0.000,0.000,24.482
8773,4.186,0.000,2.318,0.000,9.194,0.000,0.000,24.490
8855,4.186,0.000,2.318,0.000,9.194,0.000,0.000,24.485
8937,4.185,0.000,2.318,0.000,9.194,0.000,0.000,24.491
9019,4.185,0.000,2.318,0.000,9.194,0.000,0.000,24.489
9101,4.185,0.000,2.318,0.000,9.194,0.000,0.000,24.471
9183,4.184,0.000,2.318,0.000,9.194,0.000,0.000,24.487
9265,4.184,0.000,2.318,0.000,9.194,0.000,0.000,24.470
9347,4.184,0.000,2.318,0.000,9.194,0.000,0.000,24.446
9429,4.183,0.000,2.318,0.000,9.194,0.000,0.000,24.466
9511,4.183,0.000,2.318,0.000,9.194,0.000,0.000,24.443
9593,4.183,0.000,2.318,0.000,9.194,0.000,0.000,24.469
9675,4.183,0.000,2.318,0.000,9.194,0.000,0.000,24.462
9757,4.183,0.000,2.318,0.000,9.194,0.000,0.000,24.484
9839,4.183,0.000,2.318,0.000,9.194,0.000,0.000,24.499
9921,4.182,0.000,2.318,0.000,9.194,0.000,0.000,24.488
10003,4.182,0.000,2.318,0.000,9.194,0.000,0.000,24.502
10085,4.182,0.000,2.318,0.000,9.194,0.000,0.000,24.475
10167,4.182,0.000,2.318,0.000,9.194,0.000,0.000,24.502
10249,4.182,0.000,2.318,0.000,9.194,0.000,0.000,24.451
10331,4.182,0.000,2.318,0.000,9.194,0.000,0.000,24.501
10413,4.182,0.000,2.318,0.000,9.194,0.000,0.000,24.454
10495,4.181,0.000,2.318,0.000,9.194,0.000,0.000,24.454
10577,4.181,0.000,2.318,0.000,9.194,0.000,0.000,24.509
10659,4.181,0.000,2.318,0.000,9.194,0.000,0.000,24.488
10741,4.181,0.000,2.318,0.000,9.194,0.000,0.000,24.485
10823,4.181,0.000,2.318,0.000,9.194,0.000,0.000,24.501
10905,4.180,0.000,2.318,0.000,9.194,0.000,0.000,24.483
10987,4.180,0.000,2.318,0.000,9.194,0.000,0.000,24.489
11069,4.180,0.000,2.318,0.000,9.194,0.000,0.000,24.455
11151,4.180,0.000,2.318,0.000,9.194,0.000,0.000,24.497
11233,4.180,0.000,2.318,0.000,9.194,0.000,0.000,24.507
11315,4.180,0.000,2.318,0.000,9.194,0.000,0.000,24.504
11397,4.180,0.000,2.318,0.000,9.194,0.000,0.000,24.497
11478,2.800,-16.750,2.318,0.275,9.194,0.821,-0.008,33.815
11559,4.012,0.000,2.318,0.326,9.194,0.962,0.001,37.351
11641,4.040,0.000,2.318,0.326,9.194,0.962,0.000,34.236
11723,4.050,0.000,2.318,0.326,9.194,0.962,0.000,31.750
11805,4.055,0.000,2.318,0.326,9.194,0.962,0.000,30.023
11887,4.057,0.000,2.318,0.326,9.194,0.962,0.000,28.754
11969,4.057,0.000,2.318,0.326,9.194,0.962,0.000,27.764
12051,4.058,0.000,2.318,0.326,9.194,0.962,0.000,27.091
12133,4.058,0.000,2.318,0.326,9.194,0.962,0.000,26.500
12215,4.058,0.000,2.318,0.326,9.194,0.962,0.000,26.031
12297,4.058,0.000,2.318,0.326,9.194,0.962,0.000,25.785
12379,4.058,0.000,2.318,0.326,9.194,0.962,0.000,25.480
12461,4.058,0.000,2.318,0.326,9.194,0.962,0.000,25.292
12543,4.059,0.000,2.318,0.326,9.194,0.962,0.000,25.153
12625,4.059,0.000,2.318,0.326,9.194,0.962,0.000,25.012
12707,4.059,0.000,2.318,0.326,9.194,0.962,0.000,24.917
12789,4.059,0.000,2.318,0.326,9.194,0.962,0.000,24.830
12871,4.059,0.000,2.318,0.326,9.194,0.962,0.000,24.797
12953,4.059,0.000,2.318,0.326,9.194,0.962,0.000,24.716
13035,4.059,0.000,2.318,0.326,9.194,0.962,0.000,24.714
13117,4.059,0.000,2.318,0.326,9.194,0.962,0.000,24.637
13199,4.059,0.000,2.318,0.326,9.194,0.962,0.000,24.632
13281,4.059,0.000,2.318,0.326,9.194,0.962,0.000,24.584
13363,4.059,0.000,2.318,0.326,9.194,0.962,0.000,24.594
13445,4.059,0.000,2.318,0.326,9.194,0.962,0.000,24.575
13527,4.059,0.000,2.318,0.326,9.194,0.962,0.000,24.553
13609,4.059,0.000,2.318,0.326,9.194,0.962,0.000,24.466
13691,4.059,0.000,2.318,0.326,9.194,0.962,0.000,24.497
13773,4.059,0.000,2.318,0.326,9.194,0.962,0.000,24.544
13855,4.059,0.000,2.318,0.326,9.194,0.962,0.000,24.532
13937,4.059,0.000,2.318,0.326,9.194,0.962,0.000,24.477
14019,4.059,0.000,2.318,0.326,9.194,0.962,0.000,24.470
14101,4.059,0.000,2.318,0.326,9.194,0.962,0.000,24.480
14183,4.059,0.000,2.318,0.326,9.194,0.962,0.000,24.489
14265,4.059,0.000,2.318,0.326,9.194,0.962,0.000,24.508
14347,4.059,0.000,2.318,0.326,9.194,0.962,0.000,24.516
14429,4.059,0.000,2.318,0.326,9.194,0.962,0.000,24.485
14511,4.059,0.000,2.318,0.326,9.194,0.962,0.000,24.595
14593,4.059,0.000,2.318,0.326,9.194,0.962,0.000,24.480
14675,4.059,0.000,2.318,0.326,9.194,0.962,0.000,24.498
14757,4.059,0.000,2.318,0.326,9.194,0.962,0.000,24.936
14839,4.059,0.000,2.318,0.326,9.194,0.962,0.000,24.873
14921,4.059,0.000,2.318,0.326,9.194,0.962,0.000,24.797
15003,4.059,0.000,2.318,0.326,9.194,0.962,0.000,24.600
15085,4.059,0.000,2.318,0.326,9.194,0.962,0.000,24.614
15089,4.059,0.000,2.318,0.326,9.194,0.962,0.000,24.578

File: 2.csv
time_s,voltage_v,current_a,chargecapacity_ah,dischargecapacity_ah,charge_energy_wh,discharge_energy_wh,voltagedot_v_per_s,temp_degc
1,3.106,0.000,0.000,0.000,0.000,0.000,0.000,23.590
98,3.462,1.625,0.017,0.000,0.058,0.000,0.008,23.805
196,3.578,1.625,0.061,0.000,0.214,0.000,0.001,24.264
294,3.614,1.625,0.106,0.000,0.374,0.000,-0.002,24.730
392,3.628,1.625,0.150,0.000,0.534,0.000,-0.001,25.271
490,3.624,1.625,0.194,0.000,0.694,0.000,-0.004,25.671
588,3.631,1.625,0.238,0.000,0.855,0.000,0.001,25.925
686,3.638,1.625,0.283,0.000,1.015,0.000,0.005,26.124
784,3.643,1.625,0.327,0.000,1.177,0.000,-0.001,26.272
882,3.651,1.625,0.371,0.000,1.338,0.000,-0.005,26.445
980,3.665,1.625,0.415,0.000,1.500,0.000,-0.002,26.484
1078,3.670,1.625,0.460,0.000,1.662,0.000,-0.002,26.483
1176,3.678,1.625,0.504,0.000,1.825,0.000,-0.002,26.493
1274,3.685,1.625,0.548,0.000,1.988,0.000,0.001,26.492
1372,3.696,1.625,0.592,0.000,2.151,0.000,-0.001,26.446
1470,3.702,1.625,0.637,0.000,2.315,0.000,0.000,26.419
1568,3.707,1.625,0.681,0.000,2.479,0.000,0.002,26.468
1666,3.709,1.625,0.725,0.000,2.643,0.000,-0.001,26.468
1764,3.720,1.625,0.769,0.000,2.807,0.000,0.001,26.464
1862,3.727,1.625,0.814,0.000,2.972,0.000,0.002,26.537
1960,3.732,1.625,0.858,0.000,3.137,0.000,0.001,26.526
2058,3.737,1.625,0.902,0.000,3.302,0.000,-0.002,26.519
2156,3.744,1.625,0.946,0.000,3.467,0.000,0.000,26.553
2254,3.751,1.625,0.991,0.000,3.633,0.000,-0.001,26.562
2352,3.757,1.625,1.035,0.000,3.799,0.000,0.000,26.580
2450,3.763,1.625,1.079,0.000,3.966,0.000,0.000,26.577
2548,3.770,1.625,1.123,0.000,4.132,0.000,0.000,26.560
2646,3.779,1.625,1.167,0.000,4.299,0.000,0.000,26.648
2744,3.789,1.625,1.212,0.000,4.467,0.000,0.000,26.602
2842,3.801,1.625,1.256,0.000,4.635,0.000,0.000,26.597
2940,3.813,1.625,1.300,0.000,4.803,0.000,0.000,26.677
3038,3.823,1.625,1.344,0.000,4.972,0.000,0.000,26.645
3136,3.835,1.625,1.389,0.000,5.141,0.000,-0.001,26.670
3234,3.846,1.625,1.433,0.000,5.311,0.000,-0.001,26.703
3332,3.855,1.625,1.477,0.000,5.482,0.000,-0.001,26.715
3430,3.866,1.625,1.521,0.000,5.653,0.000,-0.001,26.672
3528,3.877,1.625,1.566,0.000,5.824,0.000,0.001,26.697
3626,3.887,1.625,1.610,0.000,5.996,0.000,0.001,26.736
3724,3.899,1.625,1.654,0.000,6.168,0.000,0.000,26.718
3822,3.888,1.625,1.698,0.000,6.340,0.000,0.000,26.797
3920,3.897,1.625,1.743,0.000,6.512,0.000,0.000,26.696
4018,3.907,1.625,1.787,0.000,6.685,0.000,0.000,26.892
4116,3.923,1.625,1.831,0.000,6.858,0.000,0.000,27.411
4214,3.933,1.625,1.875,0.000,7.033,0.000,0.000,27.091
4312,3.936,1.625,1.920,0.000,7.207,0.000,0.000,26.984
4410,3.948,1.625,1.964,0.000,7.381,0.000,0.000,27.011
4508,3.961,1.625,2.008,0.000,7.556,0.000,0.000,27.000
4606,3.974,1.625,2.052,0.000,7.732,0.000,0.000,27.071
4704,3.986,1.625,2.097,0.000,7.908,0.000,0.000,27.065
4802,3.999,1.625,2.141,0.000,8.084,0.000,0.000,27.059
4900,4.012,1.625,2.185,0.000,8.261,0.000,0.000,27.088
4998,4.024,1.625,2.229,0.000,8.439,0.000,0.000,27.104
5096,4.036,1.625,2.274,0.000,8.618,0.000,0.000,27.110
5194,4.049,1.625,2.318,0.000,8.796,0.000,0.000,27.155
5292,4.061,1.625,2.362,0.000,8.976,0.000,0.000,27.116
5390,4.073,1.625,2.406,0.000,9.156,0.000,0.000,27.170
5488,4.087,1.625,2.451,0.000,9.336,0.000,0.000,27.119
5586,4.100,1.625,2.495,0.000,9.517,0.000,0.000,27.196
5684,4.114,1.625,2.539,0.000,9.699,0.000,0.000,27.156
5782,4.129,1.625,2.583,0.000,9.881,0.000,0.000,27.219
5880,4.144,1.625,2.627,0.000,10.064,0.000,0.000,27.238
5978,4.160,1.625,2.672,0.000,10.248,0.000,0.000,27.252
6076,4.177,1.625,2.716,0.000,10.433,0.000,0.000,27.207
6174,4.194,1.625,2.760,0.000,10.618,0.000,0.000,27.275
6272,4.200,1.496,2.803,0.000,10.797,0.000,0.000,27.279
6370,4.200,1.358,2.842,0.000,10.960,0.000,0.000,27.218
6468,4.200,1.241,2.877,0.000,11.109,0.000,0.000,27.111
6566,4.200,1.137,2.909,0.000,11.244,0.000,0.000,26.981
6664,4.200,1.047,2.939,0.000,11.369,0.000,0.000,26.844
6762,4.200,0.963,2.966,0.000,11.484,0.000,0.000,26.663
6860,4.200,0.893,2.992,0.000,11.590,0.000,0.000,26.585
6958,4.200,0.830,3.015,0.000,11.689,0.000,0.000,26.355
7056,4.200,0.775,3.037,0.000,11.780,0.000,0.000,26.212
7154,4.200,0.725,3.057,0.000,11.866,0.000,0.000,26.149
7252,4.200,0.679,3.077,0.000,11.946,0.000,0.000,26.042
7350,4.200,0.636,3.094,0.000,12.021,0.000,0.000,25.949
7448,4.200,0.596,3.111,0.000,12.092,0.000,0.000,25.853
7546,4.200,0.559,3.127,0.000,12.158,0.000,0.000,25.791
7644,4.200,0.524,3.142,0.000,12.219,0.000,0.000,25.661
7742,4.200,0.488,3.155,0.000,12.277,0.000,0.000,25.570
7840,4.200,0.455,3.168,0.000,12.331,0.000,0.000,25.493
7938,4.200,0.425,3.180,0.000,12.381,0.000,0.000,25.464
8036,4.200,0.396,3.191,0.000,12.428,0.000,0.000,25.437
8134,4.200,0.368,3.202,0.000,12.472,0.000,0.000,25.355
8232,4.200,0.342,3.211,0.000,12.512,0.000,0.000,25.283
8330,4.200,0.317,3.220,0.000,12.550,0.000,0.000,25.239
8428,4.200,0.294,3.229,0.000,12.585,0.000,0.000,25.221
8526,4.200,0.273,3.236,0.000,12.617,0.000,0.000,25.231
8624,4.200,0.252,3.244,0.000,12.647,0.000,0.000,25.191
8722,4.200,0.233,3.250,0.000,12.675,0.000,0.000,25.143
8820,4.200,0.216,3.256,0.000,12.701,0.000,0.000,25.113
8918,4.200,0.199,3.262,0.000,12.725,0.000,0.000,25.030
9016,4.200,0.185,3.267,0.000,12.747,0.000,0.000,25.089
9114,4.200,0.171,3.272,0.000,12.767,0.000,0.000,25.022
9212,4.200,0.158,3.276,0.000,12.786,0.000,0.000,24.968
9310,4.200,0.146,3.281,0.000,12.803,0.000,0.000,24.985
9408,4.200,0.135,3.284,0.000,12.819,0.000,0.000,24.953
9506,4.200,0.125,3.288,0.000,12.834,0.000,0.000,24.968
9604,4.200,0.116,3.291,0.000,12.848,0.000,0.000,24.936
9702,4.200,0.107,3.294,0.000,12.860,0.000,0.000,24.946
9800,4.200,0.100,3.297,0.000,12.872,0.000,0.000,24.940
9898,4.200,0.093,3.300,0.000,12.883,0.000,0.000,24.922
9996,4.200,0.086,3.302,0.000,12.894,0.000,0.000,24.932
10094,4.200,0.080,3.304,0.000,12.903,0.000,0.000,24.947
10192,4.200,0.075,3.307,0.000,12.912,0.000,0.000,24.913
10290,4.200,0.070,3.308,0.000,12.920,0.000,0.000,24.924
10388,4.200,0.065,3.310,0.000,12.928,0.000,0.000,24.901
10485,4.191,0.000,3.310,0.000,12.928,0.000,0.000,24.850
10583,4.190,0.000,3.310,0.000,12.928,0.000,0.000,24.842
10681,4.189,0.000,3.310,0.000,12.928,0.000,0.000,24.894
10779,4.188,0.000,3.310,0.000,12.928,0.000,0.000,24.918
10877,4.187,0.000,3.310,0.000,12.928,0.000,0.000,24.846
10975,4.186,0.000,3.310,0.000,12.928,0.000,0.000,24.834
11073,4.186,0.000,3.310,0.000,12.928,0.000,0.000,24.859
11171,4.185,0.000,3.310,0.000,12.928,0.000,0.000,24.892
11269,4.185,0.000,3.310,0.000,12.928,0.000,0.000,24.928
11367,4.184,0.000,3.310,0.000,12.928,0.000,0.000,24.861
11465,4.184,0.000,3.310,0.000,12.928,0.000,0.000,24.890
11563,4.183,0.000,3.310,0.000,12.928,0.000,0.000,24.886
11661,4.183,0.000,3.310,0.000,12.928,0.000,0.000,24.857
11759,4.183,0.000,3.310,0.000,12.928,0.000,0.000,24.886
11857,4.182,0.000,3.310,0.000,12.928,0.000,0.000,24.885
11955,4.182,0.000,3.310,0.000,12.928,0.000,0.000,24.923
12053,4.182,0.000,3.310,0.000,12.928,0.000,0.000,24.881
12151,4.182,0.000,3.310,0.000,12.928,0.000,0.000,24.939
12249,4.181,0.000,3.310,0.000,12.928,0.000,0.000,24.932
12347,4.181,0.000,3.310,0.000,12.928,0.000,0.000,24.909
12445,4.181,0.000,3.310,0.000,12.928,0.000,0.000,24.893
12543,4.181,0.000,3.310,0.000,12.928,0.000,0.000,24.939
12641,4.180,0.000,3.310,0.000,12.928,0.000,0.000,24.888
12739,4.180,0.000,3.310,0.000,12.928,0.000,0.000,24.920
12837,4.180,0.000,3.310,0.000,12.928,0.000,0.000,24.940
12935,4.180,0.000,3.310,0.000,12.928,0.000,0.000,24.936
13033,4.180,0.000,3.310,0.000,12.928,0.000,0.000,24.931
13131,4.179,0.000,3.310,0.000,12.928,0.000,0.000,24.918
13229,4.179,0.000,3.310,0.000,12.928,0.000,0.000,24.931
13327,4.179,0.000,3.310,0.000,12.928,0.000,0.000,24.934
13425,4.179,0.000,3.310,0.000,12.928,0.000,0.000,24.874
13523,4.179,0.000,3.310,0.000,12.928,0.000,0.000,24.929
13621,4.179,0.000,3.310,0.000,12.928,0.000,0.000,24.923
13719,4.179,0.000,3.310,0.000,12.928,0.000,0.000,24.937
13817,4.178,0.000,3.310,0.000,12.928,0.000,0.000,24.935
13915,4.178,0.000,3.310,0.000,12.928,0.000,0.000,24.954
14012,2.857,-16.748,3.310,0.098,12.928,0.287,-0.006,27.696
14109,4.025,0.000,3.310,0.276,12.928,0.777,0.001,38.713
14207,4.060,0.000,3.310,0.276,12.928,0.777,0.000,34.780
14305,4.069,0.000,3.310,0.276,12.928,0.777,0.000,32.162
14403,4.071,0.000,3.310,0.276,12.928,0.777,0.000,30.162
14501,4.072,0.000,3.310,0.276,12.928,0.777,0.000,28.805
14599,4.072,0.000,3.310,0.276,12.928,0.777,0.000,27.903
14697,4.073,0.000,3.310,0.276,12.928,0.777,0.000,27.221
14795,4.073,0.000,3.310,0.276,12.928,0.777,0.000,26.656
14893,4.073,0.000,3.310,0.276,12.928,0.777,0.000,26.354
14991,4.073,0.000,3.310,0.276,12.928,0.777,0.000,26.013
15089,4.073,0.000,3.310,0.276,12.928,0.777,0.000,25.975
15187,4.073,0.000,3.310,0.276,12.928,0.777,0.000,25.927
15285,4.073,0.000,3.310,0.276,12.928,0.777,0.000,25.633
15383,4.073,0.000,3.310,0.276,12.928,0.777,0.000,25.562
15481,4.073,0.000,3.310,0.276,12.928,0.777,0.000,25.466
15579,4.073,0.000,3.310,0.276,12.928,0.777,0.000,25.418
15677,4.073,0.000,3.310,0.276,12.928,0.777,0.000,25.469
15775,4.074,0.000,3.310,0.276,12.928,0.777,0.000,25.427
15873,4.074,0.000,3.310,0.276,12.928,0.777,0.000,25.423
15971,4.074,0.000,3.310,0.276,12.928,0.777,0.000,25.410
16069,4.074,0.000,3.310,0.276,12.928,0.777,0.000,25.468
16167,4.074,0.000,3.310,0.276,12.928,0.777,0.000,25.410
16265,4.074,0.000,3.310,0.276,12.928,0.777,0.000,25.428
16363,4.074,0.000,3.310,0.276,12.928,0.777,0.000,25.432
16461,4.074,0.000,3.310,0.276,12.928,0.777,0.000,25.456
16559,4.074,0.000,3.310,0.276,12.928,0.777,0.000,25.437
16657,4.074,0.000,3.310,0.276,12.928,0.777,0.000,25.441
16755,4.074,0.000,3.310,0.276,12.928,0.777,0.000,25.410
16853,4.074,0.000,3.310,0.276,12.928,0.777,0.000,25.396
16951,4.074,0.000,3.310,0.276,12.928,0.777,0.000,25.421
17049,4.074,0.000,3.310,0.276,12.928,0.777,0.000,25.409
17147,4.074,0.000,3.310,0.276,12.928,0.777,0.000,25.393
17245,4.074,0.000,3.310,0.276,12.928,0.777,0.000,25.394
17343,4.074,0.000,3.310,0.276,12.928,0.777,0.000,25.353
17441,4.074,0.000,3.310,0.276,12.928,0.777,0.000,25.328
17539,4.074,0.000,3.310,0.276,12.928,0.777,0.000,25.337
17637,4.074,0.000,3.310,0.276,12.928,0.777,0.000,25.328
17650,4.074,0.000,3.310,0.276,12.928,0.777,0.000,25.326