Folder: EE-292X-Battery-Modeling/data/T25/5C (part 2)

File: 3.csv
time_s,voltage_v,current_a,chargecapacity_ah,dischargecapacity_ah,charge_energy_wh,discharge_energy_wh,voltagedot_v_per_s,temp_degc
1,4.144,0.000,0.000,0.000,0.000,0.000,0.000,25.815
47,4.144,0.000,0.000,0.000,0.000,0.000,0.000,25.576
91,4.199,0.355,0.003,0.000,0.015,0.000,0.000,25.412
137,4.201,0.230,0.007,0.000,0.031,0.000,0.001,25.334
183,4.201,0.136,0.010,0.000,0.041,0.000,0.001,25.312
229,4.201,0.124,0.011,0.000,0.048,0.000,0.000,25.245
275,4.200,0.143,0.013,0.000,0.055,0.000,-0.001,25.258
321,4.199,0.100,0.015,0.000,0.062,0.000,0.001,25.221
367,4.200,0.103,0.016,0.000,0.067,0.000,0.000,25.247
413,4.199,0.109,0.017,0.000,0.073,0.000,0.002,25.187
459,4.200,0.112,0.019,0.000,0.079,0.000,0.000,25.236
505,4.200,0.175,0.021,0.000,0.087,0.000,0.001,25.194
551,4.200,0.158,0.023,0.000,0.096,0.000,0.001,25.172
597,4.200,0.188,0.025,0.000,0.105,0.000,0.000,25.165
643,4.200,0.195,0.028,0.000,0.116,0.000,0.000,25.223
689,4.200,0.164,0.030,0.000,0.127,0.000,0.000,25.192
735,4.200,0.120,0.032,0.000,0.135,0.000,-0.002,25.123
781,4.202,0.124,0.034,0.000,0.142,0.000,-0.001,25.166
827,4.201,0.094,0.035,0.000,0.148,0.000,0.000,25.104
873,4.202,0.089,0.036,0.000,0.153,0.000,0.000,25.115
919,4.202,0.086,0.038,0.000,0.158,0.000,0.001,25.122
965,4.200,0.083,0.039,0.000,0.162,0.000,0.000,25.144
1011,4.201,0.077,0.040,0.000,0.167,0.000,0.001,25.146
1057,4.201,0.080,0.041,0.000,0.171,0.000,-0.003,25.103
1103,4.201,0.086,0.042,0.000,0.176,0.000,-0.003,25.106
1149,4.175,0.000,0.042,0.000,0.178,0.000,0.000,25.122
1195,4.173,0.000,0.042,0.000,0.178,0.000,0.000,25.101
1241,4.173,0.000,0.042,0.000,0.178,0.000,0.000,25.125
1287,4.172,0.000,0.042,0.000,0.178,0.000,0.000,25.066
1333,4.172,0.000,0.042,0.000,0.178,0.000,0.000,25.104
1379,4.172,0.000,0.042,0.000,0.178,0.000,0.000,25.073
1425,4.171,0.000,0.042,0.000,0.178,0.000,0.000,25.088
1471,4.171,0.000,0.042,0.000,0.178,0.000,0.000,25.117
1517,4.171,0.000,0.042,0.000,0.178,0.000,0.000,25.060
1563,4.171,0.000,0.042,0.000,0.178,0.000,0.000,25.062
1609,4.171,0.000,0.042,0.000,0.178,0.000,0.000,25.057
1655,4.171,0.000,0.042,0.000,0.178,0.000,0.000,25.050
1701,4.171,0.000,0.042,0.000,0.178,0.000,0.000,25.072
1747,4.170,0.000,0.042,0.000,0.178,0.000,0.000,25.100
1793,4.170,0.000,0.042,0.000,0.178,0.000,0.000,25.058
1839,4.170,0.000,0.042,0.000,0.178,0.000,0.000,25.042
1885,4.170,0.000,0.042,0.000,0.178,0.000,0.000,25.058
1931,4.170,0.000,0.042,0.000,0.178,0.000,0.000,25.030
1977,4.170,0.000,0.042,0.000,0.178,0.000,0.000,25.072
2023,4.170,0.000,0.042,0.000,0.178,0.000,0.000,25.109
2069,4.170,0.000,0.042,0.000,0.178,0.000,0.000,25.068
2115,4.170,0.000,0.042,0.000,0.178,0.000,0.000,25.080
2161,4.170,0.000,0.042,0.000,0.178,0.000,0.000,25.043
2207,4.170,0.000,0.042,0.000,0.178,0.000,0.000,25.058
2253,4.170,0.000,0.042,0.000,0.178,0.000,0.000,25.041
2299,4.170,0.000,0.042,0.000,0.178,0.000,0.000,25.056
2345,4.170,0.000,0.042,0.000,0.178,0.000,0.000,25.041
2391,4.170,0.000,0.042,0.000,0.178,0.000,0.000,25.034
2437,4.170,0.000,0.042,0.000,0.178,0.000,0.000,25.086
2483,4.169,0.000,0.042,0.000,0.178,0.000,0.000,25.081
2529,4.169,0.000,0.042,0.000,0.178,0.000,0.000,25.083
2575,4.169,0.000,0.042,0.000,0.178,0.000,0.000,25.027
2621,4.169,0.000,0.042,0.000,0.178,0.000,0.000,25.006
2667,4.169,0.000,0.042,0.000,0.178,0.000,0.000,24.993
2713,4.169,0.000,0.042,0.000,0.178,0.000,0.000,25.042
2759,4.169,0.000,0.042,0.000,0.178,0.000,0.000,25.256
2805,4.169,0.000,0.042,0.000,0.178,0.000,0.000,25.365
2851,4.169,0.000,0.042,0.000,0.178,0.000,0.000,25.476
2897,4.169,0.000,0.042,0.000,0.178,0.000,0.000,25.415
2943,4.169,0.000,0.042,0.000,0.178,0.000,0.000,25.360
2989,4.169,0.000,0.042,0.000,0.178,0.000,0.000,25.365
3035,4.169,0.000,0.042,0.000,0.178,0.000,0.000,25.405
3081,4.169,0.000,0.042,0.000,0.178,0.000,0.000,25.315
3127,4.169,0.000,0.042,0.000,0.178,0.000,0.000,25.363
3173,4.169,0.000,0.042,0.000,0.178,0.000,0.000,25.370
3219,4.169,0.000,0.042,0.000,0.178,0.000,0.000,25.387
3265,4.169,0.000,0.042,0.000,0.178,0.000,0.000,25.367
3311,4.169,0.000,0.042,0.000,0.178,0.000,0.000,25.372
3357,4.169,0.000,0.042,0.000,0.178,0.000,0.000,25.382
3403,4.169,0.000,0.042,0.000,0.178,0.000,0.000,25.457
3449,4.169,0.000,0.042,0.000,0.178,0.000,0.000,25.418
3495,4.169,0.000,0.042,0.000,0.178,0.000,0.000,25.387
3541,4.169,0.000,0.042,0.000,0.178,0.000,0.000,25.414
3587,4.169,0.000,0.042,0.000,0.178,0.000,0.000,25.426
3633,4.169,0.000,0.042,0.000,0.178,0.000,0.000,25.435
3679,4.169,0.000,0.042,0.000,0.178,0.000,0.000,25.455
3725,4.169,0.000,0.042,0.000,0.178,0.000,0.000,25.467
3771,4.169,0.000,0.042,0.000,0.178,0.000,0.000,25.431
3817,4.169,0.000,0.042,0.000,0.178,0.000,0.000,25.481
3863,4.169,0.000,0.042,0.000,0.178,0.000,0.000,25.416
3909,4.169,0.000,0.042,0.000,0.178,0.000,0.000,25.406
3955,4.169,0.000,0.042,0.000,0.178,0.000,0.000,25.411
4001,4.169,0.000,0.042,0.000,0.178,0.000,0.000,25.410
4047,4.169,0.000,0.042,0.000,0.178,0.000,0.000,25.396
4093,4.169,0.000,0.042,0.000,0.178,0.000,0.000,25.421
4139,4.169,0.000,0.042,0.000,0.178,0.000,0.000,25.413
4185,4.169,0.000,0.042,0.000,0.178,0.000,0.000,25.377
4231,4.169,0.000,0.042,0.000,0.178,0.000,0.000,25.388
4277,4.169,0.000,0.042,0.000,0.178,0.000,0.000,25.398
4323,4.169,0.000,0.042,0.000,0.178,0.000,0.000,25.405
4369,4.169,0.000,0.042,0.000,0.178,0.000,0.000,25.417
4415,4.169,0.000,0.042,0.000,0.178,0.000,0.000,25.374
4461,4.169,0.000,0.042,0.000,0.178,0.000,0.000,25.381
4507,4.169,0.000,0.042,0.000,0.178,0.000,0.000,25.402
4553,4.169,0.000,0.042,0.000,0.178,0.000,0.000,25.362
4599,4.168,0.000,0.042,0.000,0.178,0.000,0.000,25.373
4645,4.168,0.000,0.042,0.000,0.178,0.000,0.000,25.365
4691,4.169,0.000,0.042,0.000,0.178,0.000,0.000,25.328
4736,2.967,-16.747,0.042,0.023,0.178,0.070,-0.010,25.435
4782,2.640,-16.747,0.042,0.237,0.178,0.672,-0.014,34.578
4827,3.944,0.000,0.042,0.317,0.178,0.878,0.003,40.853
4873,4.012,0.000,0.042,0.317,0.178,0.878,0.001,39.517
4919,4.031,0.000,0.042,0.317,0.178,0.878,0.000,37.504
4965,4.040,0.000,0.042,0.317,0.178,0.878,0.000,35.830
5011,4.045,0.000,0.042,0.317,0.178,0.878,0.000,34.307
5057,4.049,0.000,0.042,0.317,0.178,0.878,0.000,33.143
5103,4.051,0.000,0.042,0.317,0.178,0.878,0.000,32.066
5149,4.053,0.000,0.042,0.317,0.178,0.878,0.000,31.185
5195,4.054,0.000,0.042,0.317,0.178,0.878,0.000,30.446
5241,4.054,0.000,0.042,0.317,0.178,0.878,0.000,29.826
5287,4.054,0.000,0.042,0.317,0.178,0.878,0.000,29.222
5333,4.055,0.000,0.042,0.317,0.178,0.878,0.000,28.731
5379,4.055,0.000,0.042,0.317,0.178,0.878,0.000,28.274
5425,4.055,0.000,0.042,0.317,0.178,0.878,0.000,27.896
5471,4.055,0.000,0.042,0.317,0.178,0.878,0.000,27.589
5517,4.055,0.000,0.042,0.317,0.178,0.878,0.000,27.328
5563,4.055,0.000,0.042,0.317,0.178,0.878,0.000,27.041
5609,4.055,0.000,0.042,0.317,0.178,0.878,0.000,26.818
5655,4.055,0.000,0.042,0.317,0.178,0.878,0.000,26.608
5701,4.055,0.000,0.042,0.317,0.178,0.878,0.000,26.479
5747,4.055,0.000,0.042,0.317,0.178,0.878,0.000,26.321
5793,4.055,0.000,0.042,0.317,0.178,0.878,0.000,26.224
5839,4.055,0.000,0.042,0.317,0.178,0.878,0.000,26.027
5885,4.055,0.000,0.042,0.317,0.178,0.878,0.000,25.962
5931,4.055,0.000,0.042,0.317,0.178,0.878,0.000,25.868
5977,4.055,0.000,0.042,0.317,0.178,0.878,0.000,25.748
6023,4.056,0.000,0.042,0.317,0.178,0.878,0.000,25.693
6069,4.056,0.000,0.042,0.317,0.178,0.878,0.000,25.605
6115,4.056,0.000,0.042,0.317,0.178,0.878,0.000,25.551
6161,4.056,0.000,0.042,0.317,0.178,0.878,0.000,25.507
6207,4.056,0.000,0.042,0.317,0.178,0.878,0.000,25.405
6253,4.056,0.000,0.042,0.317,0.178,0.878,0.000,25.391
6299,4.056,0.000,0.042,0.317,0.178,0.878,0.000,25.354
6345,4.056,0.000,0.042,0.317,0.178,0.878,0.000,25.298
6391,4.056,0.000,0.042,0.317,0.178,0.878,0.000,25.204
6437,4.056,0.000,0.042,0.317,0.178,0.878,0.000,25.246
6483,4.056,0.000,0.042,0.317,0.178,0.878,0.000,25.210
6529,4.056,0.000,0.042,0.317,0.178,0.878,0.000,25.164
6575,4.056,0.000,0.042,0.317,0.178,0.878,0.000,25.132
6621,4.056,0.000,0.042,0.317,0.178,0.878,0.000,25.104
6667,4.056,0.000,0.042,0.317,0.178,0.878,0.000,25.112
6713,4.056,0.000,0.042,0.317,0.178,0.878,0.000,25.091
6759,4.056,0.000,0.042,0.317,0.178,0.878,0.000,25.094
6805,4.056,0.000,0.042,0.317,0.178,0.878,0.000,25.076
6851,4.056,0.000,0.042,0.317,0.178,0.878,0.000,25.039
6897,4.056,0.000,0.042,0.317,0.178,0.878,0.000,25.007
6943,4.056,0.000,0.042,0.317,0.178,0.878,0.000,25.035
6989,4.056,0.000,0.042,0.317,0.178,0.878,0.000,25.038
7035,4.056,0.000,0.042,0.317,0.178,0.878,0.000,25.045
7081,4.056,0.000,0.042,0.317,0.178,0.878,0.000,25.003
7127,4.056,0.000,0.042,0.317,0.178,0.878,0.000,24.973
7173,4.056,0.000,0.042,0.317,0.178,0.878,0.000,24.977
7219,4.056,0.000,0.042,0.317,0.178,0.878,0.000,25.022
7265,4.056,0.000,0.042,0.317,0.178,0.878,0.000,24.984
7311,4.056,0.000,0.042,0.317,0.178,0.878,0.000,24.978
7357,4.056,0.000,0.042,0.317,0.178,0.878,0.000,24.978
7403,4.056,0.000,0.042,0.317,0.178,0.878,0.000,24.929
7449,4.056,0.000,0.042,0.317,0.178,0.878,0.000,24.962
7495,4.056,0.000,0.042,0.317,0.178,0.878,0.000,24.940
7541,4.056,0.000,0.042,0.317,0.178,0.878,0.000,24.985
7587,4.056,0.000,0.042,0.317,0.178,0.878,0.000,24.935
7633,4.056,0.000,0.042,0.317,0.178,0.878,0.000,24.931
7679,4.056,0.000,0.042,0.317,0.178,0.878,0.000,24.898
7725,4.056,0.000,0.042,0.317,0.178,0.878,0.000,24.935
7771,4.056,0.000,0.042,0.317,0.178,0.878,0.000,24.954
7817,4.056,0.000,0.042,0.317,0.178,0.878,0.000,24.980
7863,4.056,0.000,0.042,0.317,0.178,0.878,0.000,24.947
7909,4.056,0.000,0.042,0.317,0.178,0.878,0.000,24.930
7955,4.056,0.000,0.042,0.317,0.178,0.878,0.000,24.954
8001,4.056,0.000,0.042,0.317,0.178,0.878,0.000,24.925
8047,4.056,0.000,0.042,0.317,0.178,0.878,0.000,24.929
8093,4.056,0.000,0.042,0.317,0.178,0.878,0.000,24.922
8139,4.056,0.000,0.042,0.317,0.178,0.878,0.000,24.945
8185,4.056,0.000,0.042,0.317,0.178,0.878,0.000,24.979
8231,4.057,0.000,0.042,0.317,0.178,0.878,0.000,24.911
8277,4.056,0.000,0.042,0.317,0.178,0.878,0.000,24.932
8323,4.056,0.000,0.042,0.317,0.178,0.878,0.000,24.987
8369,4.056,0.000,0.042,0.317,0.178,0.878,0.000,24.940
8399,4.056,0.000,0.042,0.317,0.178,0.878,0.000,24.963

File: 4.csv
time_s,voltage_v,current_a,chargecapacity_ah,dischargecapacity_ah,charge_energy_wh,discharge_energy_wh,voltagedot_v_per_s,temp_degc
1,3.499,0.000,0.000,0.000,0.000,0.000,0.000,24.709
88,3.628,1.625,0.013,0.000,0.046,0.000,0.001,24.755
176,3.650,1.625,0.052,0.000,0.190,0.000,0.000,24.954
264,3.660,1.625,0.092,0.000,0.336,0.000,0.000,25.098
352,3.669,1.625,0.132,0.000,0.481,0.000,0.000,25.271
440,3.676,1.625,0.172,0.000,0.627,0.000,0.000,25.434
528,3.685,1.625,0.211,0.000,0.773,0.000,0.000,25.593
616,3.693,1.625,0.251,0.000,0.920,0.000,0.000,25.704
704,3.701,1.625,0.291,0.000,1.067,0.000,0.000,25.797
792,3.709,1.625,0.330,0.000,1.214,0.000,0.000,25.875
880,3.717,1.625,0.370,0.000,1.361,0.000,0.000,26.017
968,3.726,1.625,0.410,0.000,1.509,0.000,0.000,26.082
1056,3.734,1.625,0.450,0.000,1.657,0.000,0.000,26.153
1144,3.741,1.625,0.489,0.000,1.806,0.000,0.000,26.202
1232,3.749,1.625,0.529,0.000,1.955,0.000,0.000,26.261
1320,3.756,1.625,0.569,0.000,2.104,0.000,0.000,26.280
1408,3.764,1.625,0.609,0.000,2.253,0.000,0.000,26.393
1496,3.771,1.625,0.648,0.000,2.403,0.000,0.000,26.377
1584,3.779,1.625,0.688,0.000,2.553,0.000,0.000,26.401
1672,3.787,1.625,0.728,0.000,2.703,0.000,0.000,26.380
1760,3.795,1.625,0.767,0.000,2.854,0.000,0.000,26.450
1848,3.804,1.625,0.807,0.000,3.005,0.000,0.000,26.470
1936,3.813,1.625,0.847,0.000,3.156,0.000,0.000,26.486
2024,3.822,1.625,0.887,0.000,3.308,0.000,0.000,26.464
2112,3.831,1.625,0.926,0.000,3.460,0.000,0.000,26.455
2200,3.841,1.625,0.966,0.000,3.612,0.000,0.000,26.511
2288,3.851,1.625,1.006,0.000,3.765,0.000,0.000,26.515
2376,3.862,1.625,1.046,0.000,3.918,0.000,0.000,26.510
2464,3.873,1.625,1.085,0.000,4.072,0.000,0.000,26.528
2552,3.884,1.625,1.125,0.000,4.226,0.000,0.000,26.544
2640,3.896,1.625,1.165,0.000,4.380,0.000,0.000,26.537
2728,3.907,1.625,1.204,0.000,4.535,0.000,0.000,26.559
2816,3.919,1.625,1.244,0.000,4.691,0.000,0.000,26.566
2904,3.931,1.625,1.284,0.000,4.847,0.000,0.000,26.539
2992,3.944,1.625,1.324,0.000,5.003,0.000,0.000,26.524
3080,3.956,1.625,1.363,0.000,5.160,0.000,0.000,26.558
3168,3.968,1.625,1.403,0.000,5.318,0.000,0.000,26.490
3256,3.980,1.625,1.443,0.000,5.475,0.000,0.000,26.438
3344,3.992,1.625,1.483,0.000,5.634,0.000,0.000,26.484
3432,4.008,1.625,1.522,0.000,5.793,0.000,0.000,26.529
3520,4.019,1.625,1.562,0.000,5.952,0.000,0.000,26.460
3608,4.031,1.625,1.602,0.000,6.112,0.000,0.000,26.643
3696,4.041,1.625,1.641,0.000,6.272,0.000,0.000,26.872
3784,4.052,1.625,1.681,0.000,6.433,0.000,0.000,26.688
3872,4.063,1.625,1.721,0.000,6.594,0.000,0.000,26.617
3960,4.076,1.625,1.761,0.000,6.756,0.000,0.000,26.628
4048,4.088,1.625,1.800,0.000,6.918,0.000,0.000,26.664
4136,4.101,1.625,1.840,0.000,7.081,0.000,0.000,26.688
4224,4.115,1.625,1.880,0.000,7.244,0.000,0.000,26.763
4312,4.129,1.625,1.920,0.000,7.408,0.000,0.000,26.807
4400,4.144,1.625,1.959,0.000,7.572,0.000,0.000,26.880
4488,4.159,1.625,1.999,0.000,7.737,0.000,0.000,26.926
4576,4.175,1.625,2.039,0.000,7.903,0.000,0.000,26.927
4664,4.191,1.625,2.079,0.000,8.069,0.000,0.000,27.020
4752,4.200,1.536,2.118,0.000,8.233,0.000,0.000,27.055
4840,4.200,1.386,2.153,0.000,8.382,0.000,0.000,27.021
4928,4.200,1.265,2.186,0.000,8.518,0.000,0.000,26.990
5016,4.200,1.158,2.215,0.000,8.642,0.000,0.000,26.905
5104,4.200,1.066,2.242,0.000,8.756,0.000,0.000,26.791
5192,4.200,0.985,2.267,0.000,8.862,0.000,0.000,26.642
5280,4.200,0.914,2.290,0.000,8.959,0.000,0.000,26.535
5368,4.200,0.852,2.312,0.000,9.049,0.000,0.000,26.468
5456,4.200,0.798,2.332,0.000,9.134,0.000,0.000,26.374
5544,4.200,0.749,2.351,0.000,9.213,0.000,0.000,26.270
5632,4.200,0.706,2.369,0.000,9.288,0.000,0.000,26.164
5720,4.200,0.665,2.385,0.000,9.358,0.000,0.000,26.106
5808,4.200,0.627,2.401,0.000,9.424,0.000,0.000,26.014
5896,4.200,0.591,2.416,0.000,9.487,0.000,0.000,25.930
5984,4.200,0.556,2.430,0.000,9.546,0.000,0.000,25.848
6072,4.200,0.522,2.443,0.000,9.601,0.000,0.000,25.785
6160,4.200,0.490,2.456,0.000,9.653,0.000,0.000,25.710
6248,4.200,0.459,2.467,0.000,9.702,0.000,0.000,25.660
6336,4.200,0.430,2.478,0.000,9.747,0.000,0.000,25.617
6424,4.200,0.402,2.488,0.000,9.790,0.000,0.000,25.520
6512,4.200,0.375,2.498,0.000,9.830,0.000,0.000,25.455
6600,4.200,0.349,2.507,0.000,9.867,0.000,0.000,25.401
6688,4.200,0.325,2.515,0.000,9.902,0.000,0.000,25.348
6776,4.200,0.302,2.523,0.000,9.934,0.000,0.000,25.301
6864,4.200,0.281,2.530,0.000,9.964,0.000,0.000,25.243
6952,4.200,0.261,2.536,0.000,9.991,0.000,0.000,25.213
7040,4.200,0.242,2.542,0.000,10.017,0.000,0.000,25.198
7128,4.200,0.224,2.548,0.000,10.041,0.000,0.000,25.123
7216,4.200,0.208,2.553,0.000,10.063,0.000,0.000,25.028
7304,4.200,0.193,2.558,0.000,10.084,0.000,0.000,25.030
7392,4.200,0.178,2.563,0.000,10.103,0.000,0.000,24.996
7480,4.200,0.165,2.567,0.000,10.120,0.000,0.000,24.942
7568,4.200,0.154,2.571,0.000,10.137,0.000,0.000,24.934
7656,4.200,0.142,2.574,0.000,10.152,0.000,0.000,24.887
7744,4.200,0.132,2.578,0.000,10.166,0.000,0.000,24.811
7832,4.200,0.122,2.581,0.000,10.179,0.000,0.000,24.836
7920,4.200,0.114,2.584,0.000,10.191,0.000,0.000,24.791
8008,4.200,0.106,2.587,0.000,10.202,0.000,0.000,24.796
8096,4.200,0.098,2.589,0.000,10.213,0.000,0.000,24.733
8184,4.200,0.092,2.591,0.000,10.223,0.000,0.000,24.769
8272,4.200,0.086,2.594,0.000,10.232,0.000,0.000,24.715
8360,4.200,0.080,2.596,0.000,10.240,0.000,0.000,24.697
8448,4.200,0.074,2.597,0.000,10.248,0.000,0.000,24.710
8536,4.200,0.071,2.599,0.000,10.256,0.000,0.000,24.695
8624,4.200,0.065,2.601,0.000,10.263,0.000,0.000,24.686
8711,4.193,0.000,2.601,0.000,10.263,0.000,0.000,24.660
8799,4.192,0.000,2.601,0.000,10.263,0.000,0.000,24.668
8887,4.190,0.000,2.601,0.000,10.263,0.000,0.000,24.689
8975,4.189,0.000,2.601,0.000,10.263,0.000,0.000,24.625
9063,4.189,0.000,2.601,0.000,10.263,0.000,0.000,24.672
9151,4.188,0.000,2.601,0.000,10.263,0.000,0.000,24.625
9239,4.187,0.000,2.601,0.000,10.263,0.000,0.000,24.694
9327,4.187,0.000,2.601,0.000,10.263,0.000,0.000,24.627
9415,4.186,0.000,2.601,0.000,10.263,0.000,0.000,24.682
9503,4.186,0.000,2.601,0.000,10.263,0.000,0.000,24.647
9591,4.185,0.000,2.601,0.000,10.263,0.000,0.000,24.642
9679,4.185,0.000,2.601,0.000,10.263,0.000,0.000,24.677
9767,4.185,0.000,2.601,0.000,10.263,0.000,0.000,24.652
9855,4.184,0.000,2.601,0.000,10.263,0.000,0.000,24.667
9943,4.184,0.000,2.601,0.000,10.263,0.000,0.000,24.673
10031,4.184,0.000,2.601,0.000,10.263,0.000,0.000,24.682
10119,4.183,0.000,2.601,0.000,10.263,0.000,0.000,24.658
10207,4.183,0.000,2.601,0.000,10.263,0.000,0.000,24.675
10295,4.183,0.000,2.601,0.000,10.263,0.000,0.000,24.677
10383,4.183,0.000,2.601,0.000,10.263,0.000,0.000,24.707
10471,4.182,0.000,2.601,0.000,10.263,0.000,0.000,24.710
10559,4.182,0.000,2.601,0.000,10.263,0.000,0.000,24.680
10647,4.182,0.000,2.601,0.000,10.263,0.000,0.000,24.678
10735,4.181,0.000,2.601,0.000,10.263,0.000,0.000,24.734
10823,4.181,0.000,2.601,0.000,10.263,0.000,0.000,24.733
10911,4.181,0.000,2.601,0.000,10.263,0.000,0.000,24.678
10999,4.181,0.000,2.601,0.000,10.263,0.000,0.000,24.701
11087,4.181,0.000,2.601,0.000,10.263,0.000,0.000,24.727
11175,4.181,0.000,2.601,0.000,10.263,0.000,0.000,24.691
11263,4.180,0.000,2.601,0.000,10.263,0.000,0.000,24.751
11351,4.180,0.000,2.601,0.000,10.263,0.000,0.000,24.703
11439,4.180,0.000,2.601,0.000,10.263,0.000,0.000,24.738
11527,4.180,0.000,2.601,0.000,10.263,0.000,0.000,24.728
11615,4.180,0.000,2.601,0.000,10.263,0.000,0.000,24.754
11703,4.180,0.000,2.601,0.000,10.263,0.000,0.000,24.715
11791,4.180,0.000,2.601,0.000,10.263,0.000,0.000,24.730
11879,4.179,0.000,2.601,0.000,10.263,0.000,0.000,24.722
11967,4.179,0.000,2.601,0.000,10.263,0.000,0.000,24.754
12055,4.179,0.000,2.601,0.000,10.263,0.000,0.000,24.785
12143,4.179,0.000,2.601,0.000,10.263,0.000,0.000,24.770
12230,3.099,-16.747,2.601,0.019,10.263,0.058,-0.018,24.835
12317,3.901,0.000,2.601,0.351,10.263,1.005,0.005,41.203
12405,4.021,0.000,2.601,0.351,10.263,1.005,0.000,38.822
12493,4.035,0.000,2.601,0.351,10.263,1.005,0.000,35.426
12581,4.042,0.000,2.601,0.351,10.263,1.005,0.000,32.833
12669,4.046,0.000,2.601,0.351,10.263,1.005,0.000,31.003
12757,4.048,0.000,2.601,0.351,10.263,1.005,0.000,29.571
12845,4.048,0.000,2.601,0.351,10.263,1.005,0.000,28.572
12933,4.049,0.000,2.601,0.351,10.263,1.005,0.000,27.756
13021,4.049,0.000,2.601,0.351,10.263,1.005,0.000,27.164
13109,4.049,0.000,2.601,0.351,10.263,1.005,0.000,26.682
13197,4.049,0.000,2.601,0.351,10.263,1.005,0.000,26.289
13285,4.049,0.000,2.601,0.351,10.263,1.005,0.000,25.976
13373,4.049,0.000,2.601,0.351,10.263,1.005,0.000,25.782
13461,4.050,0.000,2.601,0.351,10.263,1.005,0.000,25.594
13549,4.050,0.000,2.601,0.351,10.263,1.005,0.000,25.509
13637,4.050,0.000,2.601,0.351,10.263,1.005,0.000,25.339
13725,4.050,0.000,2.601,0.351,10.263,1.005,0.000,25.265
13813,4.050,0.000,2.601,0.351,10.263,1.005,0.000,25.189
13901,4.050,0.000,2.601,0.351,10.263,1.005,0.000,25.094
13989,4.050,0.000,2.601,0.351,10.263,1.005,0.000,25.034
14077,4.050,0.000,2.601,0.351,10.263,1.005,0.000,25.024
14165,4.050,0.000,2.601,0.351,10.263,1.005,0.000,24.997
14253,4.050,0.000,2.601,0.351,10.263,1.005,0.000,24.991
14341,4.050,0.000,2.601,0.351,10.263,1.005,0.000,24.915
14429,4.050,0.000,2.601,0.351,10.263,1.005,0.000,24.942
14517,4.050,0.000,2.601,0.351,10.263,1.005,0.000,24.951
14605,4.050,0.000,2.601,0.351,10.263,1.005,0.000,24.892
14693,4.050,0.000,2.601,0.351,10.263,1.005,0.000,24.968
14781,4.050,0.000,2.601,0.351,10.263,1.005,0.000,25.146
14869,4.050,0.000,2.601,0.351,10.263,1.005,0.000,25.186
14957,4.050,0.000,2.601,0.351,10.263,1.005,0.000,25.143
15045,4.050,0.000,2.601,0.351,10.263,1.005,0.000,25.062
15133,4.050,0.000,2.601,0.351,10.263,1.005,0.000,25.091
15221,4.050,0.000,2.601,0.351,10.263,1.005,0.000,25.095
15309,4.050,0.000,2.601,0.351,10.263,1.005,0.000,25.082
15397,4.050,0.000,2.601,0.351,10.263,1.005,0.000,25.113
15485,4.050,0.000,2.601,0.351,10.263,1.005,0.000,25.120
15573,4.050,0.000,2.601,0.351,10.263,1.005,0.000,25.152
15661,4.050,0.000,2.601,0.351,10.263,1.005,0.000,25.178
15749,4.050,0.000,2.601,0.351,10.263,1.005,0.000,25.151
15837,4.050,0.000,2.601,0.351,10.263,1.005,0.000,25.166
15901,4.050,0.000,2.601,0.351,10.263,1.005,0.000,25.193