Folder: EE-292X-Battery-Modeling/data/T25/5C (part 3)

File: 5.csv
time_s,voltage_v,current_a,chargecapacity_ah,dischargecapacity_ah,charge_energy_wh,discharge_energy_wh,voltagedot_v_per_s,temp_degc
1,3.528,0.000,0.000,0.000,0.000,0.000,0.000,25.200
87,3.747,1.625,0.012,0.000,0.046,0.000,0.005,25.265
174,3.759,1.625,0.051,0.000,0.193,0.000,0.003,25.424
261,3.770,1.625,0.091,0.000,0.341,0.000,-0.002,25.663
348,3.777,1.625,0.130,0.000,0.489,0.000,-0.005,25.810
435,3.781,1.625,0.169,0.000,0.637,0.000,0.005,26.025
522,3.788,1.625,0.209,0.000,0.786,0.000,0.003,26.198
609,3.800,1.625,0.248,0.000,0.935,0.000,-0.006,26.359
696,3.806,1.625,0.287,0.000,1.084,0.000,0.007,26.494
783,3.817,1.625,0.326,0.000,1.234,0.000,-0.001,26.588
870,3.823,1.625,0.366,0.000,1.383,0.000,0.003,26.651
957,3.837,1.625,0.405,0.000,1.534,0.000,-0.001,26.761
1044,3.842,1.625,0.444,0.000,1.684,0.000,-0.004,26.816
1131,3.849,1.625,0.483,0.000,1.835,0.000,0.005,26.926
1218,3.855,1.625,0.523,0.000,1.987,0.000,0.000,27.014
1305,3.867,1.625,0.562,0.000,2.138,0.000,-0.003,26.986
1392,3.875,1.625,0.601,0.000,2.290,0.000,0.000,27.050
1479,3.879,1.625,0.640,0.000,2.442,0.000,0.001,27.030
1566,3.894,1.625,0.680,0.000,2.595,0.000,-0.003,27.048
1653,3.895,1.625,0.719,0.000,2.748,0.000,-0.006,27.067
1740,3.908,1.625,0.758,0.000,2.901,0.000,-0.001,27.103
1827,3.933,1.625,0.798,0.000,3.055,0.000,-0.004,27.085
1914,3.928,1.625,0.837,0.000,3.210,0.000,-0.001,27.061
2001,3.939,1.625,0.876,0.000,3.364,0.000,-0.003,27.101
2088,3.949,1.625,0.915,0.000,3.519,0.000,-0.002,27.108
2175,3.963,1.625,0.955,0.000,3.674,0.000,0.005,27.108
2262,3.955,1.625,0.994,0.000,3.829,0.000,0.002,27.073
2349,3.967,1.625,1.033,0.000,3.985,0.000,0.002,27.016
2436,3.965,1.625,1.072,0.000,4.140,0.000,-0.001,26.944
2523,3.974,1.625,1.112,0.000,4.296,0.000,-0.002,26.928
2610,3.990,1.625,1.151,0.000,4.452,0.000,-0.004,26.841
2697,3.998,1.625,1.190,0.000,4.609,0.000,-0.002,26.839
2784,4.011,1.625,1.230,0.000,4.767,0.000,0.001,26.784
2871,4.017,1.625,1.269,0.000,4.924,0.000,-0.001,26.736
2958,4.034,1.625,1.308,0.000,5.083,0.000,0.001,26.705
3045,4.040,1.625,1.347,0.000,5.241,0.000,-0.001,26.678
3132,4.054,1.625,1.387,0.000,5.400,0.000,-0.001,26.618
3219,4.062,1.625,1.426,0.000,5.559,0.000,0.002,26.605
3306,4.073,1.625,1.465,0.000,5.719,0.000,0.001,26.571
3393,4.085,1.625,1.504,0.000,5.879,0.000,0.002,26.549
3480,4.095,1.625,1.544,0.000,6.040,0.000,0.000,26.602
3567,4.106,1.625,1.583,0.000,6.201,0.000,0.001,26.576
3654,4.115,1.625,1.622,0.000,6.362,0.000,0.000,26.543
3741,4.126,1.625,1.661,0.000,6.524,0.000,0.000,26.581
3828,4.139,1.625,1.701,0.000,6.686,0.000,0.001,26.595
3915,4.150,1.625,1.740,0.000,6.849,0.000,0.000,26.605
4002,4.164,1.625,1.779,0.000,7.012,0.000,0.000,26.663
4089,4.178,1.625,1.819,0.000,7.176,0.000,0.000,26.674
4176,4.185,1.625,1.858,0.000,7.340,0.000,0.000,26.678
4263,4.199,1.625,1.897,0.000,7.505,0.000,0.000,26.703
4350,4.200,1.496,1.935,0.000,7.663,0.000,0.000,26.731
4437,4.200,1.383,1.969,0.000,7.809,0.000,0.000,26.672
4524,4.200,1.287,2.002,0.000,7.944,0.000,0.000,26.598
4611,4.200,1.199,2.032,0.000,8.070,0.000,0.000,26.524
4698,4.200,1.117,2.060,0.000,8.188,0.000,0.000,26.440
4785,4.200,1.042,2.086,0.000,8.297,0.000,0.000,26.328
4872,4.200,0.973,2.110,0.000,8.399,0.000,0.000,26.206
4959,4.200,0.912,2.133,0.000,8.495,0.000,0.000,26.092
5046,4.200,0.857,2.154,0.000,8.585,0.000,0.000,26.022
5133,4.200,0.808,2.174,0.000,8.669,0.000,0.000,25.939
5220,4.200,0.765,2.193,0.000,8.749,0.000,0.000,25.856
5307,4.200,0.727,2.211,0.000,8.825,0.000,0.000,25.799
5394,4.200,0.688,2.228,0.000,8.897,0.000,0.000,25.661
5481,4.200,0.651,2.245,0.000,8.964,0.000,0.000,25.656
5568,4.200,0.612,2.260,0.000,9.028,0.000,0.000,25.569
5655,4.200,0.578,2.274,0.000,9.089,0.000,0.000,25.541
5742,4.200,0.549,2.288,0.000,9.146,0.000,0.000,25.456
5829,4.200,0.518,2.301,0.000,9.200,0.000,0.000,25.426
5916,4.200,0.490,2.313,0.000,9.251,0.000,0.000,25.407
6003,4.200,0.463,2.324,0.000,9.300,0.000,0.000,25.352
6090,4.200,0.436,2.335,0.000,9.345,0.000,0.000,25.339
6177,4.200,0.413,2.346,0.000,9.389,0.000,0.000,25.284
6264,4.200,0.388,2.355,0.000,9.429,0.000,0.000,25.235
6351,4.200,0.365,2.364,0.000,9.467,0.000,0.000,25.226
6438,4.200,0.343,2.373,0.000,9.503,0.000,0.000,25.170
6525,4.200,0.322,2.381,0.000,9.537,0.000,0.000,25.159
6612,4.200,0.302,2.388,0.000,9.569,0.000,0.000,25.159
6699,4.200,0.283,2.396,0.000,9.598,0.000,0.000,25.119
6786,4.200,0.264,2.402,0.000,9.626,0.000,0.000,25.101
6873,4.200,0.247,2.408,0.000,9.652,0.000,0.000,25.062
6960,4.200,0.231,2.414,0.000,9.676,0.000,0.000,25.062
7047,4.200,0.216,2.419,0.000,9.699,0.000,0.000,25.058
7134,4.200,0.201,2.425,0.000,9.720,0.000,0.000,25.060
7221,4.200,0.188,2.429,0.000,9.740,0.000,0.000,25.042
7308,4.200,0.175,2.434,0.000,9.758,0.000,0.000,25.046
7395,4.200,0.163,2.438,0.000,9.775,0.000,0.000,24.991
7482,4.200,0.152,2.441,0.000,9.791,0.000,0.000,25.007
7569,4.200,0.142,2.445,0.000,9.806,0.000,0.000,24.971
7656,4.200,0.132,2.448,0.000,9.820,0.000,0.000,25.027
7743,4.200,0.122,2.451,0.000,9.833,0.000,0.000,24.973
7830,4.200,0.115,2.454,0.000,9.845,0.000,0.000,24.950
7917,4.200,0.107,2.457,0.000,9.856,0.000,0.000,24.939
8004,4.200,0.100,2.459,0.000,9.867,0.000,0.000,24.962
8091,4.200,0.094,2.462,0.000,9.877,0.000,0.000,24.958
8178,4.200,0.087,2.464,0.000,9.886,0.000,0.000,24.944
8265,4.200,0.082,2.466,0.000,9.894,0.000,0.000,25.005
8352,4.200,0.077,2.468,0.000,9.902,0.000,0.000,24.919
8439,4.200,0.072,2.470,0.000,9.910,0.000,0.000,24.993
8526,4.200,0.068,2.471,0.000,9.917,0.000,0.000,24.960
8612,4.193,0.000,2.472,0.000,9.920,0.000,0.000,24.950
8699,4.191,0.000,2.472,0.000,9.920,0.000,0.000,24.973
8786,4.190,0.000,2.472,0.000,9.920,0.000,0.000,24.973
8873,4.189,0.000,2.472,0.000,9.920,0.000,0.000,24.979
8960,4.188,0.000,2.472,0.000,9.920,0.000,0.000,24.935
9047,4.188,0.000,2.472,0.000,9.920,0.000,0.000,24.921
9134,4.187,0.000,2.472,0.000,9.920,0.000,0.000,24.964
9221,4.186,0.000,2.472,0.000,9.920,0.000,0.000,24.937
9308,4.186,0.000,2.472,0.000,9.920,0.000,0.000,24.924
9395,4.185,0.000,2.472,0.000,9.920,0.000,0.000,24.982
9482,4.185,0.000,2.472,0.000,9.920,0.000,0.000,24.957
9569,4.185,0.000,2.472,0.000,9.920,0.000,0.000,24.986
9656,4.184,0.000,2.472,0.000,9.920,0.000,0.000,24.924
9743,4.184,0.000,2.472,0.000,9.920,0.000,0.000,24.941
9830,4.184,0.000,2.472,0.000,9.920,0.000,0.000,24.939
9917,4.183,0.000,2.472,0.000,9.920,0.000,0.000,24.929
10004,4.183,0.000,2.472,0.000,9.920,0.000,0.000,24.968
10091,4.183,0.000,2.472,0.000,9.920,0.000,0.000,24.965
10178,4.182,0.000,2.472,0.000,9.920,0.000,0.000,24.982
10265,4.182,0.000,2.472,0.000,9.920,0.000,0.000,24.999
10352,4.182,0.000,2.472,0.000,9.920,0.000,0.000,24.951
10439,4.182,0.000,2.472,0.000,9.920,0.000,0.000,25.134
10526,4.182,0.000,2.472,0.000,9.920,0.000,0.000,25.428
10613,4.181,0.000,2.472,0.000,9.920,0.000,0.000,25.370
10700,4.181,0.000,2.472,0.000,9.920,0.000,0.000,25.278
10787,4.181,0.000,2.472,0.000,9.920,0.000,0.000,25.232
10874,4.181,0.000,2.472,0.000,9.920,0.000,0.000,25.196
10961,4.181,0.000,2.472,0.000,9.920,0.000,0.000,25.165
11048,4.181,0.000,2.472,0.000,9.920,0.000,0.000,25.219
11135,4.180,0.000,2.472,0.000,9.920,0.000,0.000,25.290
11222,4.180,0.000,2.472,0.000,9.920,0.000,0.000,25.259
11309,4.180,0.000,2.472,0.000,9.920,0.000,0.000,25.322
11396,4.180,0.000,2.472,0.000,9.920,0.000,0.000,25.310
11483,4.180,0.000,2.472,0.000,9.920,0.000,0.000,25.324
11570,4.180,0.000,2.472,0.000,9.920,0.000,0.000,25.354
11657,4.180,0.000,2.472,0.000,9.920,0.000,0.000,25.384
11744,4.179,0.000,2.472,0.000,9.920,0.000,0.000,25.396
11831,4.179,0.000,2.472,0.000,9.920,0.000,0.000,25.404
11918,4.179,0.000,2.472,0.000,9.920,0.000,0.000,25.381
12005,4.179,0.000,2.472,0.000,9.920,0.000,0.000,25.467
12092,4.179,0.000,2.472,0.000,9.920,0.000,0.000,25.391
12178,2.976,-16.747,2.472,0.060,9.920,0.184,-0.010,26.807
12265,4.043,0.000,2.472,0.226,9.920,0.650,0.001,36.169
12352,4.076,0.000,2.472,0.226,9.920,0.650,0.000,33.652
12439,4.084,0.000,2.472,0.226,9.920,0.650,0.000,31.671
12526,4.086,0.000,2.472,0.226,9.920,0.650,0.000,30.220
12613,4.087,0.000,2.472,0.226,9.920,0.650,0.000,29.118
12700,4.087,0.000,2.472,0.226,9.920,0.650,0.000,28.284
12787,4.088,0.000,2.472,0.226,9.920,0.650,0.000,27.664
12874,4.088,0.000,2.472,0.226,9.920,0.650,0.000,27.182
12961,4.088,0.000,2.472,0.226,9.920,0.650,0.000,26.823
13048,4.088,0.000,2.472,0.226,9.920,0.650,0.000,26.484
13135,4.088,0.000,2.472,0.226,9.920,0.650,0.000,26.257
13222,4.088,0.000,2.472,0.226,9.920,0.650,0.000,26.104
13309,4.088,0.000,2.472,0.226,9.920,0.650,0.000,25.894
13396,4.088,0.000,2.472,0.226,9.920,0.650,0.000,25.725
13483,4.088,0.000,2.472,0.226,9.920,0.650,0.000,25.639
13570,4.089,0.000,2.472,0.226,9.920,0.650,0.000,25.581
13657,4.089,0.000,2.472,0.226,9.920,0.650,0.000,25.438
13744,4.089,0.000,2.472,0.226,9.920,0.650,0.000,25.394
13831,4.089,0.000,2.472,0.226,9.920,0.650,0.000,25.348
13918,4.089,0.000,2.472,0.226,9.920,0.650,0.000,25.289
14005,4.089,0.000,2.472,0.226,9.920,0.650,0.000,25.235
14092,4.089,0.000,2.472,0.226,9.920,0.650,0.000,25.164
14179,4.089,0.000,2.472,0.226,9.920,0.650,0.000,25.140
14266,4.089,0.000,2.472,0.226,9.920,0.650,0.000,25.108
14353,4.089,0.000,2.472,0.226,9.920,0.650,0.000,25.038
14440,4.089,0.000,2.472,0.226,9.920,0.650,0.000,25.061
14527,4.089,0.000,2.472,0.226,9.920,0.650,0.000,25.039
14614,4.089,0.000,2.472,0.226,9.920,0.650,0.000,24.979
14701,4.089,0.000,2.472,0.226,9.920,0.650,0.000,24.997
14788,4.089,0.000,2.472,0.226,9.920,0.650,0.000,24.965
14875,4.089,0.000,2.472,0.226,9.920,0.650,0.000,24.955
14962,4.089,0.000,2.472,0.226,9.920,0.650,0.000,24.925
15049,4.089,0.000,2.472,0.226,9.920,0.650,0.000,24.899
15136,4.089,0.000,2.472,0.226,9.920,0.650,0.000,24.918
15223,4.089,0.000,2.472,0.226,9.920,0.650,0.000,24.892
15310,4.089,0.000,2.472,0.226,9.920,0.650,0.000,24.897
15397,4.089,0.000,2.472,0.226,9.920,0.650,0.000,24.888
15484,4.089,0.000,2.472,0.226,9.920,0.650,0.000,24.877
15571,4.089,0.000,2.472,0.226,9.920,0.650,0.000,24.841
15658,4.089,0.000,2.472,0.226,9.920,0.650,0.000,24.867
15745,4.089,0.000,2.472,0.226,9.920,0.650,0.000,24.877
15814,4.089,0.000,2.472,0.226,9.920,0.650,0.000,24.845

File: 6.csv
time_s,voltage_v,current_a,chargecapacity_ah,dischargecapacity_ah,charge_energy_wh,discharge_energy_wh,voltagedot_v_per_s,temp_degc
1,4.074,0.000,0.000,0.000,0.000,0.000,0.000,23.699
53,4.074,0.000,0.000,0.000,0.000,0.000,0.000,23.799
104,4.197,1.625,0.020,0.000,0.083,0.002,0.000,24.081
155,4.200,1.479,0.042,0.000,0.176,0.002,0.000,24.340
207,4.200,1.358,0.062,0.000,0.262,0.002,0.000,24.542
259,4.200,1.259,0.081,0.000,0.341,0.002,0.000,24.726
311,4.200,1.170,0.099,0.000,0.415,0.002,0.000,24.833
363,4.200,1.086,0.115,0.000,0.484,0.002,0.000,24.870
415,4.200,1.006,0.130,0.000,0.547,0.002,0.000,24.991
467,4.200,0.929,0.144,0.000,0.606,0.002,0.000,25.007
519,4.200,0.855,0.157,0.000,0.660,0.002,0.000,25.011
571,4.200,0.785,0.169,0.000,0.709,0.002,0.000,25.039
623,4.200,0.718,0.180,0.000,0.755,0.002,0.000,25.017
675,4.200,0.657,0.190,0.000,0.797,0.002,0.000,25.033
727,4.200,0.598,0.199,0.000,0.835,0.002,0.000,24.999
779,4.200,0.544,0.207,0.000,0.869,0.002,0.000,24.982
831,4.200,0.494,0.215,0.000,0.901,0.002,0.000,24.985
883,4.200,0.448,0.221,0.000,0.929,0.002,0.000,24.973
935,4.200,0.407,0.227,0.000,0.955,0.002,0.000,24.897
987,4.200,0.369,0.233,0.000,0.979,0.002,0.000,24.876
1039,4.200,0.336,0.238,0.000,1.000,0.002,0.000,24.878
1091,4.200,0.306,0.243,0.000,1.020,0.002,0.000,24.839
1143,4.200,0.278,0.247,0.000,1.037,0.002,0.000,24.854
1195,4.200,0.254,0.251,0.000,1.053,0.002,0.000,24.824
1247,4.200,0.234,0.254,0.000,1.068,0.002,0.000,24.786
1299,4.200,0.214,0.258,0.000,1.082,0.002,0.000,24.844
1351,4.200,0.197,0.261,0.000,1.094,0.002,0.000,24.789
1403,4.200,0.182,0.263,0.000,1.106,0.002,0.000,24.781
1455,4.200,0.168,0.266,0.000,1.116,0.002,0.000,24.749
1507,4.200,0.156,0.268,0.000,1.126,0.002,0.000,24.747
1559,4.200,0.146,0.270,0.000,1.135,0.002,0.000,24.718
1611,4.200,0.135,0.272,0.000,1.144,0.002,0.000,24.782
1663,4.200,0.126,0.274,0.000,1.152,0.002,0.000,24.706
1715,4.200,0.118,0.276,0.000,1.159,0.002,0.000,24.664
1767,4.200,0.111,0.278,0.000,1.166,0.002,0.000,24.682
1819,4.200,0.104,0.279,0.000,1.172,0.002,0.000,24.681
1871,4.200,0.097,0.281,0.000,1.179,0.002,0.000,24.686
1923,4.200,0.092,0.282,0.000,1.184,0.002,0.000,24.670
1975,4.200,0.086,0.283,0.000,1.190,0.002,0.000,24.653
2027,4.200,0.081,0.285,0.000,1.195,0.002,0.000,24.639
2079,4.200,0.076,0.286,0.000,1.199,0.002,0.000,24.650
2131,4.200,0.072,0.287,0.000,1.204,0.002,0.000,24.605
2183,4.200,0.069,0.288,0.000,1.208,0.002,0.000,24.693
2235,4.195,0.000,0.289,0.000,1.212,0.002,0.000,24.636
2287,4.194,0.000,0.289,0.000,1.212,0.002,0.000,24.655
2339,4.193,0.000,0.289,0.000,1.212,0.002,0.000,24.598
2391,4.192,0.000,0.289,0.000,1.212,0.002,0.000,24.665
2443,4.191,0.000,0.289,0.000,1.212,0.002,0.000,24.582
2495,4.191,0.000,0.289,0.000,1.212,0.002,0.000,24.609
2547,4.190,0.000,0.289,0.000,1.212,0.002,0.000,24.631
2599,4.190,0.000,0.289,0.000,1.212,0.002,0.000,24.641
2651,4.190,0.000,0.289,0.000,1.212,0.002,0.000,24.639
2703,4.189,0.000,0.289,0.000,1.212,0.002,0.000,24.652
2755,4.189,0.000,0.289,0.000,1.212,0.002,0.000,24.671
2807,4.189,0.000,0.289,0.000,1.212,0.002,0.000,24.625
2859,4.188,0.000,0.289,0.000,1.212,0.002,0.000,24.619
2911,4.188,0.000,0.289,0.000,1.212,0.002,0.000,24.618
2963,4.188,0.000,0.289,0.000,1.212,0.002,0.000,24.628
3015,4.188,0.000,0.289,0.000,1.212,0.002,0.000,24.632
3067,4.188,0.000,0.289,0.000,1.212,0.002,0.000,24.653
3119,4.187,0.000,0.289,0.000,1.212,0.002,0.000,24.637
3171,4.187,0.000,0.289,0.000,1.212,0.002,0.000,24.659
3223,4.187,0.000,0.289,0.000,1.212,0.002,0.000,24.593
3275,4.187,0.000,0.289,0.000,1.212,0.002,0.000,24.645
3327,4.187,0.000,0.289,0.000,1.212,0.002,0.000,24.666
3379,4.186,0.000,0.289,0.000,1.212,0.002,0.000,24.609
3431,4.186,0.000,0.289,0.000,1.212,0.002,0.000,24.665
3483,4.186,0.000,0.289,0.000,1.212,0.002,0.000,24.665
3535,4.186,0.000,0.289,0.000,1.212,0.002,0.000,24.630
3587,4.186,0.000,0.289,0.000,1.212,0.002,0.000,24.671
3639,4.186,0.000,0.289,0.000,1.212,0.002,0.000,24.654
3691,4.186,0.000,0.289,0.000,1.212,0.002,0.000,24.676
3743,4.185,0.000,0.289,0.000,1.212,0.002,0.000,24.647
3795,4.185,0.000,0.289,0.000,1.212,0.002,0.000,24.667
3847,4.185,0.000,0.289,0.000,1.212,0.002,0.000,24.629
3899,4.185,0.000,0.289,0.000,1.212,0.002,0.000,24.652
3951,4.185,0.000,0.289,0.000,1.212,0.002,0.000,24.669
4003,4.185,0.000,0.289,0.000,1.212,0.002,0.000,24.668
4055,4.185,0.000,0.289,0.000,1.212,0.002,0.000,24.676
4107,4.185,0.000,0.289,0.000,1.212,0.002,0.000,24.608
4159,4.185,0.000,0.289,0.000,1.212,0.002,0.000,24.616
4211,4.185,0.000,0.289,0.000,1.212,0.002,0.000,24.661
4263,4.185,0.000,0.289,0.000,1.212,0.002,0.000,24.643
4315,4.184,0.000,0.289,0.000,1.212,0.002,0.000,24.657
4367,4.184,0.000,0.289,0.000,1.212,0.002,0.000,24.640
4419,4.184,0.000,0.289,0.000,1.212,0.002,0.000,24.678
4471,4.184,0.000,0.289,0.000,1.212,0.002,0.000,24.674
4523,4.184,0.000,0.289,0.000,1.212,0.002,0.000,24.677
4575,4.184,0.000,0.289,0.000,1.212,0.002,0.000,24.622
4627,4.184,0.000,0.289,0.000,1.212,0.002,0.000,24.682
4679,4.184,0.000,0.289,0.000,1.212,0.002,0.000,24.605
4731,4.184,0.000,0.289,0.000,1.212,0.002,0.000,24.606
4783,4.184,0.000,0.289,0.000,1.212,0.002,0.000,24.654
4835,4.184,0.000,0.289,0.000,1.212,0.002,0.000,24.613
4887,4.184,0.000,0.289,0.000,1.212,0.002,0.000,24.630
4939,4.184,0.000,0.289,0.000,1.212,0.002,0.000,24.617
4991,4.184,0.000,0.289,0.000,1.212,0.002,0.000,24.604
5043,4.183,0.000,0.289,0.000,1.212,0.002,0.000,24.626
5095,4.183,0.000,0.289,0.000,1.212,0.002,0.000,24.608
5147,4.183,0.000,0.289,0.000,1.212,0.002,0.000,24.625
5199,4.183,0.000,0.289,0.000,1.212,0.002,0.000,24.636
5251,4.183,0.000,0.289,0.000,1.212,0.002,0.000,24.610
5303,4.183,0.000,0.289,0.000,1.212,0.002,0.000,24.618
5355,4.183,0.000,0.289,0.000,1.212,0.002,0.000,24.653
5407,4.183,0.000,0.289,0.000,1.212,0.002,0.000,24.652
5459,4.183,0.000,0.289,0.000,1.212,0.002,0.000,24.624
5511,4.183,0.000,0.289,0.000,1.212,0.002,0.000,24.645
5563,4.183,0.000,0.289,0.000,1.212,0.002,0.000,24.634
5615,4.183,0.000,0.289,0.000,1.212,0.002,0.000,24.657
5667,4.183,0.000,0.289,0.000,1.212,0.002,0.000,24.635
5719,4.183,0.000,0.289,0.000,1.212,0.002,0.000,24.591
5771,4.183,0.000,0.289,0.000,1.212,0.002,0.000,24.648
5823,4.183,0.000,0.289,0.000,1.212,0.002,0.000,24.647
5874,2.863,-16.751,0.289,0.219,1.212,0.657,-0.005,33.270
5926,3.972,0.000,0.289,0.310,1.212,0.909,0.002,39.169
5978,4.028,0.000,0.289,0.310,1.212,0.909,0.000,37.494
6030,4.042,0.000,0.289,0.310,1.212,0.909,0.000,35.353
6082,4.049,0.000,0.289,0.310,1.212,0.909,0.000,33.475
6134,4.054,0.000,0.289,0.310,1.212,0.909,0.000,32.123
6186,4.058,0.000,0.289,0.310,1.212,0.909,0.000,30.805
6238,4.060,0.000,0.289,0.310,1.212,0.909,0.000,29.822
6290,4.061,0.000,0.289,0.310,1.212,0.909,0.000,28.983
6342,4.062,0.000,0.289,0.310,1.212,0.909,0.000,28.337
6394,4.063,0.000,0.289,0.310,1.212,0.909,0.000,27.848
6446,4.063,0.000,0.289,0.310,1.212,0.909,0.000,27.296
6498,4.063,0.000,0.289,0.310,1.212,0.909,0.000,26.877
6550,4.063,0.000,0.289,0.310,1.212,0.909,0.000,26.670
6602,4.063,0.000,0.289,0.310,1.212,0.909,0.000,26.592
6654,4.064,0.000,0.289,0.310,1.212,0.909,0.000,26.246
6706,4.064,0.000,0.289,0.310,1.212,0.909,0.000,25.980
6758,4.064,0.000,0.289,0.310,1.212,0.909,0.000,25.799
6810,4.064,0.000,0.289,0.310,1.212,0.909,0.000,25.566
6862,4.064,0.000,0.289,0.310,1.212,0.909,0.000,25.376
6914,4.064,0.000,0.289,0.310,1.212,0.909,0.000,25.291
6966,4.064,0.000,0.289,0.310,1.212,0.909,0.000,25.208
7018,4.064,0.000,0.289,0.310,1.212,0.909,0.000,25.123
7070,4.064,0.000,0.289,0.310,1.212,0.909,0.000,25.013
7122,4.064,0.000,0.289,0.310,1.212,0.909,0.000,25.036
7174,4.064,0.000,0.289,0.310,1.212,0.909,0.000,24.940
7226,4.064,0.000,0.289,0.310,1.212,0.909,0.000,24.910
7278,4.064,0.000,0.289,0.310,1.212,0.909,0.000,24.871
7330,4.064,0.000,0.289,0.310,1.212,0.909,0.000,24.818
7382,4.064,0.000,0.289,0.310,1.212,0.909,0.000,24.813
7434,4.064,0.000,0.289,0.310,1.212,0.909,0.000,24.782
7486,4.064,0.000,0.289,0.310,1.212,0.909,0.000,24.778
7538,4.064,0.000,0.289,0.310,1.212,0.909,0.000,24.754
7590,4.065,0.000,0.289,0.310,1.212,0.909,0.000,24.719
7642,4.064,0.000,0.289,0.310,1.212,0.909,0.000,24.710
7694,4.064,0.000,0.289,0.310,1.212,0.909,0.000,24.718
7746,4.065,0.000,0.289,0.310,1.212,0.909,0.000,24.705
7798,4.065,0.000,0.289,0.310,1.212,0.909,0.000,24.716
7850,4.065,0.000,0.289,0.310,1.212,0.909,0.000,24.720
7902,4.065,0.000,0.289,0.310,1.212,0.909,0.000,24.679
7954,4.065,0.000,0.289,0.310,1.212,0.909,0.000,24.682
8006,4.065,0.000,0.289,0.310,1.212,0.909,0.000,24.702
8058,4.065,0.000,0.289,0.310,1.212,0.909,0.000,24.704
8110,4.065,0.000,0.289,0.310,1.212,0.909,0.000,24.625
8162,4.065,0.000,0.289,0.310,1.212,0.909,0.000,24.643
8214,4.065,0.000,0.289,0.310,1.212,0.909,0.000,24.658
8266,4.065,0.000,0.289,0.310,1.212,0.909,0.000,24.646
8318,4.065,0.000,0.289,0.310,1.212,0.909,0.000,24.666
8370,4.065,0.000,0.289,0.310,1.212,0.909,0.000,24.658
8422,4.065,0.000,0.289,0.310,1.212,0.909,0.000,24.677
8474,4.065,0.000,0.289,0.310,1.212,0.909,0.000,24.646
8526,4.065,0.000,0.289,0.310,1.212,0.909,0.000,24.669
8578,4.065,0.000,0.289,0.310,1.212,0.909,0.000,24.650
8630,4.065,0.000,0.289,0.310,1.212,0.909,0.000,24.626
8682,4.065,0.000,0.289,0.310,1.212,0.909,0.000,24.671
8734,4.065,0.000,0.289,0.310,1.212,0.909,0.000,24.686
8786,4.065,0.000,0.289,0.310,1.212,0.909,0.000,24.655
8838,4.065,0.000,0.289,0.310,1.212,0.909,0.000,24.601
8890,4.065,0.000,0.289,0.310,1.212,0.909,0.000,24.645
8942,4.065,0.000,0.289,0.310,1.212,0.909,0.000,24.706
8994,4.065,0.000,0.289,0.310,1.212,0.909,0.000,24.654
9046,4.065,0.000,0.289,0.310,1.212,0.909,0.000,24.616
9098,4.065,0.000,0.289,0.310,1.212,0.909,0.000,24.670
9150,4.065,0.000,0.289,0.310,1.212,0.909,0.000,24.661
9202,4.065,0.000,0.289,0.310,1.212,0.909,0.000,24.612
9254,4.065,0.000,0.289,0.310,1.212,0.909,0.000,24.641
9306,4.065,0.000,0.289,0.310,1.212,0.909,0.000,24.640
9358,4.065,0.000,0.289,0.310,1.212,0.909,0.000,24.659
9410,4.065,0.000,0.289,0.310,1.212,0.909,0.000,24.672
9462,4.065,0.000,0.289,0.310,1.212,0.909,0.000,24.596
9494,4.065,0.000,0.289,0.310,1.212,0.909,0.000,24.641