Folder: EE-292X-Battery-Modeling/data/T25/HPPC (part 2)

File: 5.csv
time_s,voltage_v,current_a,chargecapacity_ah,dischargecapacity_ah,charge_energy_wh,discharge_energy_wh,voltagedot_v_per_s,temp_degc
1,4.032,0,0,0,0,0,0,24.861
197,4.171,1.625,0.062,0,0.257,0,0,25.263
393,4.2,1.52,0.15,0,0.626,0,0,25.78
590,4.2,1.124,0.222,0,0.927,0,0,25.985
787,4.2,0.819,0.274,0,1.149,0,0,25.921
984,4.2,0.59,0.313,0,1.309,0,0,25.752
1181,4.2,0.425,0.34,0,1.425,0,0,25.586
1378,4.2,0.312,0.36,0,1.509,0,0,25.429
1575,4.2,0.232,0.375,0,1.57,0,0,25.254
1772,4.2,0.177,0.386,0,1.617,0,0,25.193
1969,4.2,0.136,0.394,0,1.653,0,0,25.05
2166,4.2,0.108,0.401,0,1.681,0,0,24.984
2363,4.2,0.086,0.406,0,1.703,0,0,24.928
2560,4.2,0.07,0.411,0,1.721,0,0,24.896
2757,4.192,0,0.412,0,1.726,0,0,24.819
2954,4.19,0,0.412,0,1.726,0,0,24.843
3151,4.188,0,0.412,0,1.726,0,0,24.832
3348,4.187,0,0.412,0,1.726,0,0,24.849
3545,4.187,0,0.412,0,1.726,0,0,24.811
3742,4.186,0,0.412,0,1.726,0,0,24.794
3939,4.186,0,0.412,0,1.726,0,0,24.759
4136,4.185,0,0.412,0,1.726,0,0,24.78
4333,4.185,0,0.412,0,1.726,0,0,24.771
4530,4.184,0,0.412,0,1.726,0,0,24.756
4727,4.184,0,0.412,0,1.726,0,0,24.783
4924,4.184,0,0.412,0,1.726,0,0,24.801
5121,4.184,0,0.412,0,1.726,0,0,24.745
5318,4.183,0,0.412,0,1.726,0,0,24.741
5515,4.183,0,0.412,0,1.726,0,0,24.754
5712,4.183,0,0.412,0,1.726,0,0,24.721
5909,4.183,0,0.412,0,1.726,0,0,24.752
6106,4.183,0,0.412,0,1.726,0,0,24.738
6302,3.878,-3.35,0.412,0.072,1.726,0.28,0,25.472
6499,3.825,-3.35,0.412,0.255,1.726,0.986,0,27.353
6696,4.035,0,0.412,0.335,1.726,1.291,0,27.626
6893,4.051,0,0.412,0.335,1.726,1.291,0,26.711
7090,4.053,0,0.412,0.335,1.726,1.291,0,26.107
7287,4.054,0,0.412,0.335,1.726,1.291,0,25.668
7484,4.055,0,0.412,0.335,1.726,1.291,0,25.379
7681,4.056,0,0.412,0.335,1.726,1.291,0,25.156
7878,4.056,0,0.412,0.335,1.726,1.291,0,25.009
8075,4.056,0,0.412,0.335,1.726,1.291,0,24.93
8272,4.056,0,0.412,0.335,1.726,1.291,0,24.914
8469,4.057,0,0.412,0.335,1.726,1.291,0,24.857
8666,4.057,0,0.412,0.335,1.726,1.291,0,24.828
8863,4.057,0,0.412,0.335,1.726,1.291,0,24.818
9060,4.057,0,0.412,0.335,1.726,1.291,0,24.808
9257,4.057,0,0.412,0.335,1.726,1.291,0,24.832
9454,4.057,0,0.412,0.335,1.726,1.291,0,24.889
9651,4.057,0,0.412,0.335,1.726,1.291,0,24.838
9848,4.057,0,0.412,0.335,1.726,1.291,0,24.852
10045,4.057,0,0.412,0.335,1.726,1.291,0,24.775
10239,4.177,2.25,0.414,0.343,1.734,1.324,0.003,24.871
10434,3.754,-3.35,0.418,0.481,1.752,1.846,0,26.142
10631,3.692,-3.35,0.418,0.665,1.752,2.528,0,27.586
10827,3.915,0,0.418,0.678,1.752,2.58,0,27.096
11024,3.922,0,0.418,0.678,1.752,2.58,0,26.503
11221,3.93,0,0.418,0.678,1.752,2.58,0,26.046
11418,3.938,0,0.418,0.678,1.752,2.58,0,25.654
11615,3.94,0,0.418,0.678,1.752,2.58,0,25.369
11812,3.941,0,0.418,0.678,1.752,2.58,0,25.143
12009,3.941,0,0.418,0.678,1.752,2.58,0,24.998
12206,3.942,0,0.418,0.678,1.752,2.58,0,24.883
12403,3.942,0,0.418,0.678,1.752,2.58,0,24.845
12600,3.942,0,0.418,0.678,1.752,2.58,0,24.828
12797,3.942,0,0.418,0.678,1.752,2.58,0,24.823
12994,3.942,0,0.418,0.678,1.752,2.58,0,24.749
13191,3.942,0,0.418,0.678,1.752,2.58,0,24.782
13388,3.942,0,0.418,0.678,1.752,2.58,0,24.768
13585,3.943,0,0.418,0.678,1.752,2.58,0,24.755
13782,3.943,0,0.418,0.678,1.752,2.58,0,24.8
13979,3.943,0,0.418,0.678,1.752,2.58,0,24.759
14176,3.943,0,0.418,0.678,1.752,2.58,0,24.743
14368,3.717,-3.35,0.424,0.707,1.777,2.688,-0.001,24.973
14565,3.632,-3.35,0.424,0.891,1.777,3.36,0,26.493
14761,3.803,0,0.424,1.022,1.777,3.834,0,27.429
14958,3.826,0,0.424,1.022,1.777,3.834,0,26.76
15155,3.831,0,0.424,1.022,1.777,3.834,0,26.249
15352,3.833,0,0.424,1.022,1.777,3.834,0,25.889
15549,3.836,0,0.424,1.022,1.777,3.834,0,25.62
15746,3.839,0,0.424,1.022,1.777,3.834,0,25.432
15943,3.843,0,0.424,1.022,1.777,3.834,0,25.255
16140,3.849,0,0.424,1.022,1.777,3.834,0,25.137
16337,3.853,0,0.424,1.022,1.777,3.834,0,25.009
16534,3.855,0,0.424,1.022,1.777,3.834,0,24.923
16731,3.856,0,0.424,1.022,1.777,3.834,0,24.866
16928,3.856,0,0.424,1.022,1.777,3.834,0,24.86
17125,3.856,0,0.424,1.022,1.777,3.834,0,24.826
17322,3.857,0,0.424,1.022,1.777,3.834,0,24.764
17519,3.857,0,0.424,1.022,1.777,3.834,0,24.814
17716,3.857,0,0.424,1.022,1.777,3.834,0,24.764
17913,3.857,0,0.424,1.022,1.777,3.834,0,24.727
18110,3.857,0,0.424,1.022,1.777,3.834,0,24.739
18306,3.857,0,0.424,1.022,1.777,3.834,0,24.708
18500,3.59,-3.35,0.431,1.117,1.802,4.178,0,25.51
18697,3.519,-3.35,0.431,1.3,1.802,4.83,0,26.971
18893,3.724,0,0.431,1.365,1.802,5.058,0,27.097
19090,3.734,0,0.431,1.365,1.802,5.058,0,26.529
19287,3.737,0,0.431,1.365,1.802,5.058,0,25.978
19484,3.739,0,0.431,1.365,1.802,5.058,0,25.708
19681,3.741,0,0.431,1.365,1.802,5.058,0,25.46
19878,3.742,0,0.431,1.365,1.802,5.058,0,25.397
20075,3.743,0,0.431,1.365,1.802,5.058,0,25.34
20272,3.744,0,0.431,1.365,1.802,5.058,0,25.241
20469,3.744,0,0.431,1.365,1.802,5.058,0,25.136
20666,3.745,0,0.431,1.365,1.802,5.058,0,25.036
20863,3.747,0,0.431,1.365,1.802,5.058,0,25.004
21060,3.748,0,0.431,1.365,1.802,5.058,0,24.918
21257,3.749,0,0.431,1.365,1.802,5.058,0,24.879
21454,3.751,0,0.431,1.365,1.802,5.058,0,24.81
21651,3.753,0,0.431,1.365,1.802,5.058,0,24.804
21848,3.754,0,0.431,1.365,1.802,5.058,0,24.812
22045,3.756,0,0.431,1.365,1.802,5.058,0,24.79
22242,3.757,0,0.431,1.365,1.802,5.058,0,24.757
22435,3.762,0,0.437,1.374,1.826,5.088,-0.001,24.892
22631,3.468,-3.35,0.437,1.526,1.826,5.623,0,26.002
22827,3.405,-3.35,0.437,1.709,1.826,6.25,0,27.358
23024,3.642,0,0.437,1.709,1.826,6.25,0,26.614
23221,3.647,0,0.437,1.709,1.826,6.25,0,26.03
23418,3.649,0,0.437,1.709,1.826,6.25,0,25.637
23615,3.65,0,0.437,1.709,1.826,6.25,0,25.367
23812,3.65,0,0.437,1.709,1.826,6.25,0,25.171
24009,3.651,0,0.437,1.709,1.826,6.25,0,25.004
24206,3.651,0,0.437,1.709,1.826,6.25,0,24.947
24403,3.652,0,0.437,1.709,1.826,6.25,0,24.863
24600,3.652,0,0.437,1.709,1.826,6.25,0,24.832
24797,3.652,0,0.437,1.709,1.826,6.25,0,24.813
24994,3.653,0,0.437,1.709,1.826,6.25,0,24.766
25191,3.653,0,0.437,1.709,1.826,6.25,0,24.768
25388,3.653,0,0.437,1.709,1.826,6.25,0,24.757
25585,3.653,0,0.437,1.709,1.826,6.25,0,24.736
25782,3.653,0,0.437,1.709,1.826,6.25,0,24.77
25979,3.653,0,0.437,1.709,1.826,6.25,0,24.75
26176,3.654,0,0.437,1.709,1.826,6.25,0,24.726
26373,3.654,0,0.437,1.709,1.826,6.25,0,24.719
26565,3.425,-3.35,0.443,1.752,1.85,6.401,-0.001,25.082
26762,3.344,-3.35,0.443,1.936,1.85,7.02,0,26.92
26958,3.547,0,0.443,2.052,1.85,7.407,0,27.735
27155,3.576,0,0.443,2.052,1.85,7.407,0,26.756
27352,3.584,0,0.443,2.052,1.85,7.407,0,26.046
27549,3.587,0,0.443,2.052,1.85,7.407,0,25.596
27746,3.588,0,0.443,2.052,1.85,7.407,0,25.33
27943,3.589,0,0.443,2.052,1.85,7.407,0,25.138
28140,3.59,0,0.443,2.052,1.85,7.407,0,25.037
28337,3.59,0,0.443,2.052,1.85,7.407,0,24.873
28534,3.59,0,0.443,2.052,1.85,7.407,0,24.888
28731,3.591,0,0.443,2.052,1.85,7.407,0,24.805
28928,3.591,0,0.443,2.052,1.85,7.407,0,24.783
29125,3.591,0,0.443,2.052,1.85,7.407,0,24.775
29322,3.591,0,0.443,2.052,1.85,7.407,0,24.751
29519,3.591,0,0.443,2.052,1.85,7.407,0,24.757
29716,3.591,0,0.443,2.052,1.85,7.407,0,24.794
29913,3.592,0,0.443,2.052,1.85,7.407,0,24.747
30110,3.592,0,0.443,2.052,1.85,7.407,0,24.782
30307,3.592,0,0.443,2.052,1.85,7.407,0,24.736
30503,3.573,0,0.443,2.061,1.85,7.436,0.001,24.788
30697,3.306,-3.35,0.449,2.162,1.873,7.776,0,25.889
30894,3.239,-3.35,0.449,2.345,1.873,8.375,0,28.002
31090,3.478,0,0.449,2.396,1.873,8.537,0,27.784
31287,3.507,0,0.449,2.396,1.873,8.537,0,26.787
31484,3.517,0,0.449,2.396,1.873,8.537,0,26.067
31681,3.522,0,0.449,2.396,1.873,8.537,0,25.644
31878,3.525,0,0.449,2.396,1.873,8.537,0,25.331
32075,3.528,0,0.449,2.396,1.873,8.537,0,25.155
32272,3.529,0,0.449,2.396,1.873,8.537,0,24.996
32469,3.531,0,0.449,2.396,1.873,8.537,0,24.936
32666,3.531,0,0.449,2.396,1.873,8.537,0,24.842
32863,3.532,0,0.449,2.396,1.873,8.537,0,24.833
33060,3.533,0,0.449,2.396,1.873,8.537,0,24.773
33257,3.533,0,0.449,2.396,1.873,8.537,0,24.744
33454,3.534,0,0.449,2.396,1.873,8.537,0,24.763
33651,3.534,0,0.449,2.396,1.873,8.537,0,24.705
33848,3.534,0,0.449,2.396,1.873,8.537,0,24.716
34045,3.535,0,0.449,2.396,1.873,8.537,0,24.729
34242,3.535,0,0.449,2.396,1.873,8.537,0,24.708
34439,3.535,0,0.449,2.396,1.873,8.537,0,24.738
34632,3.537,0,0.456,2.404,1.896,8.565,0,24.88
34828,3.184,-3.35,0.456,2.571,1.896,9.109,-0.001,26.879
35024,3.344,0,0.456,2.739,1.896,9.634,0.002,29.053
35221,3.393,0,0.456,2.739,1.896,9.634,0,27.915
35418,3.408,0,0.456,2.739,1.896,9.634,0,27.003
35615,3.418,0,0.456,2.739,1.896,9.634,0,26.301
35812,3.423,0,0.456,2.739,1.896,9.634,0,25.841
36009,3.425,0,0.456,2.739,1.896,9.634,0,25.491
36206,3.427,0,0.456,2.739,1.896,9.634,0,25.25
36403,3.428,0,0.456,2.739,1.896,9.634,0,25.09
36600,3.429,0,0.456,2.739,1.896,9.634,0,24.996
36797,3.43,0,0.456,2.739,1.896,9.634,0,24.914
36994,3.43,0,0.456,2.739,1.896,9.634,0,24.872
37191,3.431,0,0.456,2.739,1.896,9.634,0,24.866
37388,3.431,0,0.456,2.739,1.896,9.634,0,24.806
37585,3.431,0,0.456,2.739,1.896,9.634,0,24.817
37782,3.432,0,0.456,2.739,1.896,9.634,0,24.832
37979,3.432,0,0.456,2.739,1.896,9.634,0,24.82
38176,3.432,0,0.456,2.739,1.896,9.634,0,24.784
38373,3.432,0,0.456,2.739,1.896,9.634,0,24.819
38570,3.432,0,0.456,2.739,1.896,9.634,0,24.808
38762,3.073,-3.35,0.462,2.798,1.918,9.818,-0.001,25.538
38959,2.828,-3.35,0.462,2.981,1.918,10.36,-0.001,29.253
39155,3.286,0,0.462,3.082,1.918,10.638,0,31.133
39352,3.312,0,0.462,3.082,1.918,10.638,0,29.077
39549,3.317,0,0.462,3.082,1.918,10.638,0,27.747
39746,3.319,0,0.462,3.082,1.918,10.638,0,26.747
39943,3.321,0,0.462,3.082,1.918,10.638,0,26.133
40140,3.322,0,0.462,3.082,1.918,10.638,0,25.713
40337,3.322,0,0.462,3.082,1.918,10.638,0,25.436
40534,3.323,0,0.462,3.082,1.918,10.638,0,25.193
40731,3.323,0,0.462,3.082,1.918,10.638,0,25.08
40928,3.324,0,0.462,3.082,1.918,10.638,0,24.987
41125,3.324,0,0.462,3.082,1.918,10.638,0,24.875
41322,3.324,0,0.462,3.082,1.918,10.638,0,24.89
41519,3.325,0,0.462,3.082,1.918,10.638,0,24.866
41716,3.325,0,0.462,3.082,1.918,10.638,0,24.823
41913,3.325,0,0.462,3.082,1.918,10.638,0,24.848
42110,3.325,0,0.462,3.082,1.918,10.638,0,24.839
42307,3.326,0,0.462,3.082,1.918,10.638,0,24.867
42504,3.326,0,0.462,3.082,1.918,10.638,0,24.826
42700,3.298,0,0.462,3.091,1.918,10.662,0.001,25.024
42790,2.501,-3.35,0.468,3.11,1.94,10.714,-0.014,25.313