Folder: EE-292X-Battery-Modeling/data/T35/1C

Note: README.md
# ee292x
Machine Learning project for Autumn 2019 EE292X at Stanford

File: 1.csv
time_s,voltage_v,current_a,chargecapacity_ah,dischargecapacity_ah,charge_energy_wh,discharge_energy_wh,voltagedot_v_per_s,temp_degc
1,2.927,0.000,0.000,0.000,0.000,0.000,0.000,35.069
138,2.927,0.000,0.000,0.000,0.000,0.000,0.000,35.097
275,2.927,0.000,0.000,0.000,0.000,0.000,0.000,35.100
412,2.927,0.000,0.000,0.000,0.000,0.000,0.000,35.077
549,2.928,0.000,0.000,0.000,0.000,0.000,0.000,35.079
686,2.928,0.000,0.000,0.000,0.000,0.000,0.000,35.052
823,2.929,0.000,0.000,0.000,0.000,0.000,0.000,35.123
960,2.929,0.000,0.000,0.000,0.000,0.000,0.000,35.094
1097,2.929,0.000,0.000,0.000,0.000,0.000,0.000,35.071
1234,2.929,0.000,0.000,0.000,0.000,0.000,0.000,35.041
1371,2.930,0.000,0.000,0.000,0.000,0.000,0.000,35.095
1508,2.930,0.000,0.000,0.000,0.000,0.000,0.000,35.077
1645,2.930,0.000,0.000,0.000,0.000,0.000,0.000,35.048
1782,2.931,0.000,0.000,0.000,0.000,0.000,0.000,35.101
1919,2.931,0.000,0.000,0.000,0.000,0.000,0.000,35.074
2056,2.932,0.000,0.000,0.000,0.000,0.000,0.000,35.053
2193,2.932,0.000,0.000,0.000,0.000,0.000,0.000,35.102
2330,2.932,0.000,0.000,0.000,0.000,0.000,0.000,35.041
2467,2.932,0.000,0.000,0.000,0.000,0.000,0.000,35.067
2604,2.932,0.000,0.000,0.000,0.000,0.000,0.000,35.000
2741,2.933,0.000,0.000,0.000,0.000,0.000,0.000,35.062
2878,2.933,0.000,0.000,0.000,0.000,0.000,0.000,35.056
3015,2.933,0.000,0.000,0.000,0.000,0.000,0.000,35.047
3152,2.934,0.000,0.000,0.000,0.000,0.000,0.000,35.020
3289,2.934,0.000,0.000,0.000,0.000,0.000,0.000,35.088
3426,2.934,0.000,0.000,0.000,0.000,0.000,0.000,35.082
3563,2.935,0.000,0.000,0.000,0.000,0.000,0.000,35.083
3699,3.376,1.625,0.045,0.000,0.147,0.000,0.001,35.057
3836,3.507,1.625,0.107,0.000,0.360,0.000,0.001,35.121
3973,3.549,1.625,0.168,0.000,0.579,0.000,0.000,35.331
4110,3.562,1.625,0.230,0.000,0.799,0.000,0.000,35.578
4247,3.576,1.625,0.292,0.000,1.019,0.000,0.000,35.819
4384,3.591,1.625,0.354,0.000,1.241,0.000,0.000,35.949
4521,3.606,1.625,0.416,0.000,1.464,0.000,0.000,36.018
4658,3.621,1.625,0.478,0.000,1.687,0.000,0.000,36.038
4795,3.639,1.625,0.539,0.000,1.912,0.000,0.000,36.005
4932,3.657,1.625,0.601,0.000,2.137,0.000,0.000,35.958
5069,3.672,1.625,0.663,0.000,2.364,0.000,0.000,35.933
5206,3.685,1.625,0.725,0.000,2.591,0.000,0.000,35.892
5343,3.698,1.625,0.787,0.000,2.820,0.000,0.000,35.894
5480,3.710,1.625,0.849,0.000,3.049,0.000,0.000,35.850
5617,3.723,1.625,0.911,0.000,3.279,0.000,0.000,35.912
5754,3.736,1.625,0.972,0.000,3.509,0.000,0.000,35.956
5891,3.749,1.625,1.034,0.000,3.741,0.000,0.000,36.013
6028,3.762,1.625,1.096,0.000,3.973,0.000,0.000,36.013
6165,3.774,1.625,1.158,0.000,4.206,0.000,0.000,36.076
6302,3.786,1.625,1.220,0.000,4.440,0.000,0.000,36.182
6439,3.798,1.625,1.282,0.000,4.675,0.000,0.000,36.193
6576,3.809,1.625,1.344,0.000,4.910,0.000,0.000,36.173
6713,3.821,1.625,1.405,0.000,5.146,0.000,0.000,36.173
6850,3.833,1.625,1.467,0.000,5.382,0.000,0.000,36.215
6987,3.846,1.625,1.529,0.000,5.620,0.000,0.000,36.210
7124,3.860,1.625,1.591,0.000,5.858,0.000,0.000,36.215
7261,3.874,1.625,1.653,0.000,6.097,0.000,0.000,36.219
7398,3.889,1.625,1.715,0.000,6.337,0.000,0.000,36.222
7535,3.905,1.625,1.776,0.000,6.578,0.000,0.000,36.266
7672,3.922,1.625,1.838,0.000,6.820,0.000,0.000,36.295
7809,3.940,1.625,1.900,0.000,7.064,0.000,0.000,36.242
7946,3.957,1.625,1.962,0.000,7.308,0.000,0.000,36.286
8083,3.975,1.625,2.024,0.000,7.553,0.000,0.000,36.269
8220,3.992,1.625,2.086,0.000,7.799,0.000,0.000,36.279
8357,4.009,1.625,2.148,0.000,8.047,0.000,0.000,36.256
8494,4.027,1.625,2.209,0.000,8.295,0.000,0.000,36.258
8631,4.044,1.625,2.271,0.000,8.545,0.000,0.000,36.217
8768,4.061,1.625,2.333,0.000,8.796,0.000,0.000,36.225
8905,4.078,1.625,2.395,0.000,9.047,0.000,0.000,36.226
9042,4.096,1.625,2.457,0.000,9.300,0.000,0.000,36.220
9179,4.114,1.625,2.519,0.000,9.554,0.000,0.000,36.223
9316,4.134,1.625,2.580,0.000,9.809,0.000,0.000,36.270
9453,4.155,1.625,2.642,0.000,10.065,0.000,0.000,36.261
9590,4.177,1.625,2.704,0.000,10.323,0.000,0.000,36.255
9726,4.200,1.615,2.766,0.000,10.581,0.000,0.000,36.308
9863,4.200,1.413,2.823,0.000,10.821,0.000,0.000,36.310
10000,4.200,1.255,2.874,0.000,11.034,0.000,0.000,36.230
10137,4.200,1.121,2.919,0.000,11.224,0.000,0.000,36.077
10274,4.200,1.007,2.959,0.000,11.393,0.000,0.000,35.977
10411,4.200,0.911,2.996,0.000,11.546,0.000,0.000,35.849
10548,4.200,0.831,3.029,0.000,11.685,0.000,0.000,35.755
10685,4.200,0.762,3.059,0.000,11.813,0.000,0.000,35.685
10822,4.200,0.702,3.087,0.000,11.930,0.000,0.000,35.620
10959,4.200,0.647,3.113,0.000,12.037,0.000,0.000,35.562
11096,4.200,0.596,3.136,0.000,12.137,0.000,0.000,35.499
11233,4.200,0.549,3.158,0.000,12.228,0.000,0.000,35.493
11370,4.200,0.503,3.178,0.000,12.312,0.000,0.000,35.417
11507,4.200,0.460,3.196,0.000,12.389,0.000,0.000,35.377
11644,4.200,0.419,3.213,0.000,12.459,0.000,0.000,35.372
11781,4.200,0.380,3.228,0.000,12.523,0.000,0.000,35.285
11918,4.200,0.343,3.242,0.000,12.581,0.000,0.000,35.292
12055,4.200,0.309,3.254,0.000,12.633,0.000,0.000,35.251
12192,4.200,0.277,3.265,0.000,12.680,0.000,0.000,35.183
12329,4.200,0.248,3.275,0.000,12.722,0.000,0.000,35.183
12466,4.200,0.221,3.284,0.000,12.759,0.000,0.000,35.222
12603,4.200,0.197,3.292,0.000,12.792,0.000,0.000,35.151
12740,4.200,0.174,3.299,0.000,12.822,0.000,0.000,35.134
12877,4.200,0.155,3.306,0.000,12.848,0.000,0.000,35.125
13014,4.200,0.138,3.311,0.000,12.872,0.000,0.000,35.158
13151,4.200,0.123,3.316,0.000,12.893,0.000,0.000,35.172
13288,4.200,0.109,3.321,0.000,12.911,0.000,0.000,35.125
13425,4.200,0.097,3.324,0.000,12.928,0.000,0.000,35.083
13562,4.200,0.087,3.328,0.000,12.942,0.000,0.000,35.097
13699,4.200,0.078,3.331,0.000,12.955,0.000,0.000,35.051
13836,4.200,0.069,3.334,0.000,12.967,0.000,0.000,35.080
13973,4.192,0.000,3.335,0.000,12.972,0.000,0.000,35.078
14110,4.190,0.000,3.335,0.000,12.972,0.000,0.000,35.085
14247,4.189,0.000,3.335,0.000,12.972,0.000,0.000,35.045
14384,4.188,0.000,3.335,0.000,12.972,0.000,0.000,35.103
14521,4.188,0.000,3.335,0.000,12.972,0.000,0.000,35.085
14658,4.187,0.000,3.335,0.000,12.972,0.000,0.000,35.092
14795,4.186,0.000,3.335,0.000,12.972,0.000,0.000,35.099
14932,4.186,0.000,3.335,0.000,12.972,0.000,0.000,35.077
15069,4.185,0.000,3.335,0.000,12.972,0.000,0.000,35.111
15206,4.185,0.000,3.335,0.000,12.972,0.000,0.000,35.120
15343,4.184,0.000,3.335,0.000,12.972,0.000,0.000,35.077
15480,4.184,0.000,3.335,0.000,12.972,0.000,0.000,35.039
15617,4.184,0.000,3.335,0.000,12.972,0.000,0.000,35.062
15754,4.184,0.000,3.335,0.000,12.972,0.000,0.000,35.011
15891,4.183,0.000,3.335,0.000,12.972,0.000,0.000,35.072
16028,4.183,0.000,3.335,0.000,12.972,0.000,0.000,35.045
16165,4.183,0.000,3.335,0.000,12.972,0.000,0.000,35.097
16302,4.182,0.000,3.335,0.000,12.972,0.000,0.000,35.080
16439,4.182,0.000,3.335,0.000,12.972,0.000,0.000,35.061
16576,4.182,0.000,3.335,0.000,12.972,0.000,0.000,35.057
16713,4.182,0.000,3.335,0.000,12.972,0.000,0.000,35.068
16850,4.182,0.000,3.335,0.000,12.972,0.000,0.000,35.040
16987,4.181,0.000,3.335,0.000,12.972,0.000,0.000,35.122
17124,4.181,0.000,3.335,0.000,12.972,0.000,0.000,35.070
17261,4.181,0.000,3.335,0.000,12.972,0.000,0.000,35.069
17398,4.181,0.000,3.335,0.000,12.972,0.000,0.000,35.079
17535,3.841,-3.350,3.335,0.028,12.972,0.108,-0.001,35.197
17672,3.780,-3.350,3.335,0.155,12.972,0.593,0.000,36.021
17809,3.738,-3.350,3.335,0.283,12.972,1.072,0.000,36.547
17946,3.694,-3.350,3.335,0.410,12.972,1.546,0.000,36.941
18083,3.647,-3.350,3.335,0.538,12.972,2.014,-0.001,37.133
18220,3.603,-3.350,3.335,0.665,12.972,2.476,0.000,37.284
18357,3.563,-3.350,3.335,0.793,12.972,2.933,0.000,37.331
18494,3.526,-3.350,3.335,0.920,12.972,3.385,0.000,37.478
18631,3.488,-3.350,3.335,1.048,12.972,3.832,0.000,37.546
18768,3.448,-3.350,3.335,1.175,12.972,4.274,0.000,37.702
18905,3.408,-3.350,3.335,1.303,12.972,4.711,0.000,37.784
19042,3.367,-3.350,3.335,1.430,12.972,5.143,0.000,37.812
19179,3.329,-3.350,3.335,1.558,12.972,5.570,0.000,37.979
19316,3.294,-3.350,3.335,1.685,12.972,5.992,0.000,38.043
19453,3.262,-3.350,3.335,1.813,12.972,6.410,0.000,38.138
19590,3.233,-3.350,3.335,1.940,12.972,6.824,0.000,38.276
19727,3.205,-3.350,3.335,2.068,12.972,7.235,0.000,38.374
19864,3.177,-3.350,3.335,2.195,12.972,7.641,0.000,38.420
20001,3.146,-3.350,3.335,2.323,12.972,8.045,0.000,38.544
20138,3.110,-3.350,3.335,2.450,12.972,8.443,0.000,38.610
20275,3.069,-3.350,3.335,2.578,12.972,8.837,0.000,38.776
20412,3.021,-3.350,3.335,2.705,12.972,9.226,0.000,38.889
20549,2.962,-3.350,3.335,2.833,12.972,9.607,0.000,39.076
20686,2.885,-3.350,3.335,2.960,12.972,9.980,0.000,39.439
20823,2.760,-3.350,3.335,3.088,12.972,10.341,-0.001,40.023
20960,2.504,-3.350,3.335,3.215,12.972,10.679,-0.003,41.239
21096,3.216,0.000,3.335,3.217,12.972,10.682,0.000,39.363
21233,3.230,0.000,3.335,3.217,12.972,10.682,0.000,37.818
21370,3.235,0.000,3.335,3.217,12.972,10.682,0.000,36.809
21507,3.238,0.000,3.335,3.217,12.972,10.682,0.000,36.171
21644,3.240,0.000,3.335,3.217,12.972,10.682,0.000,35.747
21781,3.241,0.000,3.335,3.217,12.972,10.682,0.000,35.510
21918,3.242,0.000,3.335,3.217,12.972,10.682,0.000,35.350
22055,3.243,0.000,3.335,3.217,12.972,10.682,0.000,35.260
22192,3.244,0.000,3.335,3.217,12.972,10.682,0.000,35.198
22329,3.245,0.000,3.335,3.217,12.972,10.682,0.000,35.137
22466,3.246,0.000,3.335,3.217,12.972,10.682,0.000,35.158
22603,3.246,0.000,3.335,3.217,12.972,10.682,0.000,35.110
22740,3.247,0.000,3.335,3.217,12.972,10.682,0.000,35.075
22877,3.247,0.000,3.335,3.217,12.972,10.682,0.000,35.104
23014,3.248,0.000,3.335,3.217,12.972,10.682,0.000,35.106
23151,3.248,0.000,3.335,3.217,12.972,10.682,0.000,35.083
23288,3.249,0.000,3.335,3.217,12.972,10.682,0.000,35.059
23425,3.249,0.000,3.335,3.217,12.972,10.682,0.000,35.068
23562,3.250,0.000,3.335,3.217,12.972,10.682,0.000,35.077
23699,3.250,0.000,3.335,3.217,12.972,10.682,0.000,35.090
23836,3.251,0.000,3.335,3.217,12.972,10.682,0.000,35.056
23973,3.251,0.000,3.335,3.217,12.972,10.682,0.000,35.085
24110,3.251,0.000,3.335,3.217,12.972,10.682,0.000,35.076
24247,3.252,0.000,3.335,3.217,12.972,10.682,0.000,35.091
24384,3.252,0.000,3.335,3.217,12.972,10.682,0.000,35.084
24521,3.252,0.000,3.335,3.217,12.972,10.682,0.000,35.036
24561,3.252,0.000,3.335,3.217,12.972,10.682,0.000,35.051

File: 2.csv
time_s,voltage_v,current_a,chargecapacity_ah,dischargecapacity_ah,charge_energy_wh,discharge_energy_wh,voltagedot_v_per_s,temp_degc
1,2.992,0.000,0.000,0.000,0.000,0.000,0.000,34.630
135,2.993,0.000,0.000,0.000,0.000,0.000,0.000,34.632
269,2.993,0.000,0.000,0.000,0.000,0.000,0.000,34.652
403,2.993,0.000,0.000,0.000,0.000,0.000,0.000,34.649
537,2.993,0.000,0.000,0.000,0.000,0.000,0.000,34.625
671,2.993,0.000,0.000,0.000,0.000,0.000,0.000,34.635
805,2.994,0.000,0.000,0.000,0.000,0.000,0.000,34.645
939,2.994,0.000,0.000,0.000,0.000,0.000,0.000,34.627
1073,2.994,0.000,0.000,0.000,0.000,0.000,0.000,34.659
1207,2.994,0.000,0.000,0.000,0.000,0.000,0.000,34.638
1341,2.995,0.000,0.000,0.000,0.000,0.000,0.000,34.654
1475,2.995,0.000,0.000,0.000,0.000,0.000,0.000,34.621
1609,2.995,0.000,0.000,0.000,0.000,0.000,0.000,34.661
1743,2.995,0.000,0.000,0.000,0.000,0.000,0.000,34.664
1877,2.996,0.000,0.000,0.000,0.000,0.000,0.000,34.661
2011,2.996,0.000,0.000,0.000,0.000,0.000,0.000,34.644
2145,2.996,0.000,0.000,0.000,0.000,0.000,0.000,34.641
2279,2.996,0.000,0.000,0.000,0.000,0.000,0.000,34.648
2413,2.996,0.000,0.000,0.000,0.000,0.000,0.000,34.660
2547,2.997,0.000,0.000,0.000,0.000,0.000,0.000,34.626
2681,2.997,0.000,0.000,0.000,0.000,0.000,0.000,34.683
2815,2.997,0.000,0.000,0.000,0.000,0.000,0.000,34.645
2949,2.998,0.000,0.000,0.000,0.000,0.000,0.000,34.590
3083,2.998,0.000,0.000,0.000,0.000,0.000,0.000,34.605
3217,2.998,0.000,0.000,0.000,0.000,0.000,0.000,34.652
3351,2.998,0.000,0.000,0.000,0.000,0.000,0.000,34.669
3485,2.998,0.000,0.000,0.000,0.000,0.000,0.000,34.647
3618,3.237,1.625,0.008,0.000,0.026,0.000,0.003,34.634
3752,3.437,1.625,0.069,0.000,0.229,0.000,0.001,34.653
3886,3.510,1.625,0.129,0.000,0.440,0.000,0.000,34.844
4020,3.521,1.625,0.190,0.000,0.652,0.000,0.000,35.145
4154,3.535,1.625,0.250,0.000,0.866,0.000,0.000,35.410
4288,3.548,1.625,0.311,0.000,1.080,0.000,0.000,35.551
4422,3.562,1.625,0.371,0.000,1.295,0.000,0.000,35.653
4556,3.577,1.625,0.432,0.000,1.511,0.000,0.000,35.683
4690,3.593,1.625,0.492,0.000,1.728,0.000,0.000,35.695
4824,3.610,1.625,0.553,0.000,1.946,0.000,0.000,35.643
4958,3.625,1.625,0.613,0.000,2.165,0.000,0.000,35.564
5092,3.637,1.625,0.674,0.000,2.384,0.000,0.000,35.528
5226,3.648,1.625,0.734,0.000,2.605,0.000,0.000,35.549
5360,3.660,1.625,0.795,0.000,2.826,0.000,0.000,35.554
5494,3.672,1.625,0.855,0.000,3.047,0.000,0.000,35.541
5628,3.684,1.625,0.916,0.000,3.270,0.000,0.000,35.550
5762,3.697,1.625,0.976,0.000,3.493,0.000,0.000,35.601
5896,3.709,1.625,1.037,0.000,3.717,0.000,0.000,35.624
6030,3.721,1.625,1.097,0.000,3.942,0.000,0.000,35.715
6164,3.733,1.625,1.157,0.000,4.167,0.000,0.000,35.695
6298,3.745,1.625,1.218,0.000,4.394,0.000,0.000,35.800
6432,3.756,1.625,1.278,0.000,4.620,0.000,0.000,35.807
6566,3.767,1.625,1.339,0.000,4.848,0.000,0.000,35.845
6700,3.778,1.625,1.399,0.000,5.076,0.000,0.000,35.866
6834,3.790,1.625,1.460,0.000,5.305,0.000,0.000,35.837
6968,3.803,1.625,1.520,0.000,5.535,0.000,0.000,35.861
7102,3.816,1.625,1.581,0.000,5.765,0.000,0.000,35.871
7236,3.830,1.625,1.641,0.000,5.996,0.000,0.000,35.876
7370,3.844,1.625,1.702,0.000,6.228,0.000,0.000,35.845
7504,3.860,1.625,1.762,0.000,6.461,0.000,0.000,35.888
7638,3.876,1.625,1.823,0.000,6.695,0.000,0.000,35.878
7772,3.892,1.625,1.883,0.000,6.930,0.000,0.000,35.816
7906,3.909,1.625,1.944,0.000,7.166,0.000,0.000,35.853
8040,3.926,1.625,2.004,0.000,7.403,0.000,0.000,35.878
8174,3.943,1.625,2.065,0.000,7.641,0.000,0.000,35.839
8308,3.960,1.625,2.125,0.000,7.880,0.000,0.000,35.857
8442,3.977,1.625,2.186,0.000,8.120,0.000,0.000,35.848
8576,3.993,1.625,2.246,0.000,8.361,0.000,0.000,35.801
8710,4.010,1.625,2.307,0.000,8.603,0.000,0.000,35.783
8844,4.027,1.625,2.367,0.000,8.846,0.000,0.000,35.784
8978,4.044,1.625,2.428,0.000,9.091,0.000,0.000,35.807
9112,4.061,1.625,2.488,0.000,9.336,0.000,0.000,35.816
9246,4.080,1.625,2.549,0.000,9.582,0.000,0.000,35.805
9380,4.100,1.625,2.609,0.000,9.829,0.000,0.000,35.863
9514,4.121,1.625,2.670,0.000,10.078,0.000,0.000,35.835
9648,4.144,1.625,2.730,0.000,10.328,0.000,0.000,35.847
9782,4.168,1.625,2.791,0.000,10.579,0.000,0.000,35.961
9916,4.192,1.625,2.851,0.000,10.832,0.000,0.000,35.959
10049,4.200,1.433,2.909,0.000,11.074,0.000,0.000,35.974
10183,4.200,1.246,2.958,0.000,11.282,0.000,0.000,35.874
10317,4.200,1.099,3.002,0.000,11.465,0.000,0.000,35.758
10451,4.200,0.978,3.041,0.000,11.627,0.000,0.000,35.612
10585,4.200,0.878,3.075,0.000,11.772,0.000,0.000,35.433
10719,4.200,0.789,3.106,0.000,11.902,0.000,0.000,35.343
10853,4.200,0.709,3.134,0.000,12.019,0.000,0.000,35.251
10987,4.200,0.637,3.159,0.000,12.124,0.000,0.000,35.192
11121,4.200,0.568,3.181,0.000,12.218,0.000,0.000,35.124
11255,4.200,0.506,3.201,0.000,12.302,0.000,0.000,35.035
11389,4.200,0.449,3.219,0.000,12.377,0.000,0.000,34.980
11523,4.200,0.395,3.235,0.000,12.443,0.000,0.000,34.949
11657,4.200,0.348,3.249,0.000,12.501,0.000,0.000,34.912
11791,4.200,0.305,3.261,0.000,12.552,0.000,0.000,34.891
11925,4.200,0.267,3.271,0.000,12.596,0.000,0.000,34.863
12059,4.200,0.232,3.281,0.000,12.635,0.000,0.000,34.811
12193,4.200,0.203,3.289,0.000,12.669,0.000,0.000,34.778
12327,4.200,0.177,3.296,0.000,12.699,0.000,0.000,34.786
12461,4.200,0.155,3.302,0.000,12.725,0.000,0.000,34.766
12595,4.200,0.135,3.307,0.000,12.747,0.000,0.000,34.716
12729,4.200,0.118,3.312,0.000,12.767,0.000,0.000,34.687
12863,4.200,0.105,3.316,0.000,12.784,0.000,0.000,34.729
12997,4.200,0.092,3.320,0.000,12.800,0.000,0.000,34.710
13131,4.200,0.081,3.323,0.000,12.813,0.000,0.000,34.723
13265,4.200,0.071,3.326,0.000,12.825,0.000,0.000,34.719
13399,4.195,0.000,3.328,0.000,12.833,0.000,0.000,34.702
13533,4.192,0.000,3.328,0.000,12.833,0.000,0.000,34.634
13667,4.191,0.000,3.328,0.000,12.833,0.000,0.000,34.688
13801,4.190,0.000,3.328,0.000,12.833,0.000,0.000,34.636
13935,4.189,0.000,3.328,0.000,12.833,0.000,0.000,34.681
14069,4.188,0.000,3.328,0.000,12.833,0.000,0.000,34.699
14203,4.188,0.000,3.328,0.000,12.833,0.000,0.000,34.684
14337,4.187,0.000,3.328,0.000,12.833,0.000,0.000,34.640
14471,4.186,0.000,3.328,0.000,12.833,0.000,0.000,34.702
14605,4.186,0.000,3.328,0.000,12.833,0.000,0.000,34.665
14739,4.186,0.000,3.328,0.000,12.833,0.000,0.000,34.649
14873,4.185,0.000,3.328,0.000,12.833,0.000,0.000,34.673
15007,4.185,0.000,3.328,0.000,12.833,0.000,0.000,34.699
15141,4.185,0.000,3.328,0.000,12.833,0.000,0.000,34.648
15275,4.184,0.000,3.328,0.000,12.833,0.000,0.000,34.656
15409,4.184,0.000,3.328,0.000,12.833,0.000,0.000,34.632
15543,4.184,0.000,3.328,0.000,12.833,0.000,0.000,34.658
15677,4.184,0.000,3.328,0.000,12.833,0.000,0.000,34.657
15811,4.183,0.000,3.328,0.000,12.833,0.000,0.000,34.635
15945,4.183,0.000,3.328,0.000,12.833,0.000,0.000,34.648
16079,4.183,0.000,3.328,0.000,12.833,0.000,0.000,34.644
16213,4.183,0.000,3.328,0.000,12.833,0.000,0.000,34.664
16347,4.182,0.000,3.328,0.000,12.833,0.000,0.000,34.638
16481,4.182,0.000,3.328,0.000,12.833,0.000,0.000,34.655
16615,4.182,0.000,3.328,0.000,12.833,0.000,0.000,34.631
16749,4.182,0.000,3.328,0.000,12.833,0.000,0.000,34.651
16883,4.182,0.000,3.328,0.000,12.833,0.000,0.000,34.649
17016,3.907,-3.350,3.328,0.049,12.833,0.194,-0.001,34.890
17150,3.860,-3.350,3.328,0.174,12.833,0.678,0.000,35.699
17284,3.821,-3.350,3.328,0.299,12.833,1.157,0.000,36.232
17418,3.779,-3.350,3.328,0.423,12.833,1.631,0.000,36.559
17552,3.735,-3.350,3.328,0.548,12.833,2.099,0.000,36.751
17686,3.693,-3.350,3.328,0.673,12.833,2.562,0.000,36.832
17820,3.655,-3.350,3.328,0.798,12.833,3.021,0.000,36.902
17954,3.619,-3.350,3.328,0.922,12.833,3.474,0.000,36.997
18088,3.582,-3.350,3.328,1.047,12.833,3.923,0.000,37.114
18222,3.544,-3.350,3.328,1.172,12.833,4.367,0.000,37.199
18356,3.504,-3.350,3.328,1.296,12.833,4.807,0.000,37.338
18490,3.465,-3.350,3.328,1.421,12.833,5.242,0.000,37.371
18624,3.428,-3.350,3.328,1.546,12.833,5.671,0.000,37.457
18758,3.394,-3.350,3.328,1.670,12.833,6.097,0.000,37.547
18892,3.362,-3.350,3.328,1.795,12.833,6.518,0.000,37.690
19026,3.333,-3.350,3.328,1.920,12.833,6.935,0.000,37.762
19160,3.305,-3.350,3.328,2.045,12.833,7.349,0.000,37.915
19294,3.278,-3.350,3.328,2.169,12.833,7.760,0.000,37.946
19428,3.247,-3.350,3.328,2.294,12.833,8.167,0.000,38.078
19562,3.213,-3.350,3.328,2.419,12.833,8.570,0.000,38.176
19696,3.173,-3.350,3.328,2.543,12.833,8.968,0.000,38.279
19830,3.124,-3.350,3.328,2.668,12.833,9.360,0.000,38.442
19964,3.065,-3.350,3.328,2.793,12.833,9.747,-0.001,38.698
20098,2.982,-3.350,3.328,2.918,12.833,10.124,-0.001,39.056
20232,2.848,-3.350,3.328,3.042,12.833,10.488,-0.001,39.746
20366,2.590,-3.350,3.328,3.167,12.833,10.829,-0.003,41.111
20500,3.225,0.000,3.328,3.193,12.833,10.896,0.000,39.733
20634,3.247,0.000,3.328,3.193,12.833,10.896,0.000,37.903
20768,3.254,0.000,3.328,3.193,12.833,10.896,0.000,36.717
20902,3.257,0.000,3.328,3.193,12.833,10.896,0.000,36.046
21036,3.260,0.000,3.328,3.193,12.833,10.896,0.000,35.580
21170,3.262,0.000,3.328,3.193,12.833,10.896,0.000,35.269
21304,3.263,0.000,3.328,3.193,12.833,10.896,0.000,35.063
21438,3.265,0.000,3.328,3.193,12.833,10.896,0.000,34.920
21572,3.265,0.000,3.328,3.193,12.833,10.896,0.000,34.840
21706,3.266,0.000,3.328,3.193,12.833,10.896,0.000,34.821
21840,3.267,0.000,3.328,3.193,12.833,10.896,0.000,34.742
21974,3.268,0.000,3.328,3.193,12.833,10.896,0.000,34.716
22108,3.268,0.000,3.328,3.193,12.833,10.896,0.000,34.723
22242,3.269,0.000,3.328,3.193,12.833,10.896,0.000,34.710
22376,3.270,0.000,3.328,3.193,12.833,10.896,0.000,34.692
22510,3.270,0.000,3.328,3.193,12.833,10.896,0.000,34.667
22644,3.271,0.000,3.328,3.193,12.833,10.896,0.000,34.723
22778,3.271,0.000,3.328,3.193,12.833,10.896,0.000,34.671
22912,3.272,0.000,3.328,3.193,12.833,10.896,0.000,34.659
23046,3.272,0.000,3.328,3.193,12.833,10.896,0.000,34.685
23180,3.273,0.000,3.328,3.193,12.833,10.896,0.000,34.710
23314,3.273,0.000,3.328,3.193,12.833,10.896,0.000,34.660
23448,3.273,0.000,3.328,3.193,12.833,10.896,0.000,34.704
23582,3.274,0.000,3.328,3.193,12.833,10.896,0.000,34.677
23716,3.274,0.000,3.328,3.193,12.833,10.896,0.000,34.625
23850,3.274,0.000,3.328,3.193,12.833,10.896,0.000,34.627
23984,3.275,0.000,3.328,3.193,12.833,10.896,0.000,34.646
23994,3.275,0.000,3.328,3.193,12.833,10.896,0.000,34.656