Folder: EE-292X-Battery-Modeling/data/T35/1C (part 3)

File: 5.csv
time_s,voltage_v,current_a,chargecapacity_ah,dischargecapacity_ah,charge_energy_wh,discharge_energy_wh,voltagedot_v_per_s,temp_degc
1,2.960,0.000,0.000,0.000,0.000,0.000,0.000,34.210
134,2.960,0.000,0.000,0.000,0.000,0.000,0.000,34.236
267,2.960,0.000,0.000,0.000,0.000,0.000,0.000,34.197
400,2.961,0.000,0.000,0.000,0.000,0.000,0.000,34.203
533,2.961,0.000,0.000,0.000,0.000,0.000,0.000,34.233
666,2.961,0.000,0.000,0.000,0.000,0.000,0.000,34.202
799,2.961,0.000,0.000,0.000,0.000,0.000,0.000,34.257
932,2.962,0.000,0.000,0.000,0.000,0.000,0.000,34.198
1065,2.962,0.000,0.000,0.000,0.000,0.000,0.000,34.227
1198,2.962,0.000,0.000,0.000,0.000,0.000,0.000,34.227
1331,2.962,0.000,0.000,0.000,0.000,0.000,0.000,34.173
1464,2.963,0.000,0.000,0.000,0.000,0.000,0.000,34.197
1597,2.963,0.000,0.000,0.000,0.000,0.000,0.000,34.193
1730,2.963,0.000,0.000,0.000,0.000,0.000,0.000,34.215
1863,2.963,0.000,0.000,0.000,0.000,0.000,0.000,34.230
1996,2.964,0.000,0.000,0.000,0.000,0.000,0.000,34.219
2129,2.964,0.000,0.000,0.000,0.000,0.000,0.000,34.217
2262,2.964,0.000,0.000,0.000,0.000,0.000,0.000,34.194
2395,2.964,0.000,0.000,0.000,0.000,0.000,0.000,34.251
2528,2.965,0.000,0.000,0.000,0.000,0.000,0.000,34.217
2661,2.965,0.000,0.000,0.000,0.000,0.000,0.000,34.236
2794,2.965,0.000,0.000,0.000,0.000,0.000,0.000,34.210
2927,2.965,0.000,0.000,0.000,0.000,0.000,0.000,34.219
3060,2.965,0.000,0.000,0.000,0.000,0.000,0.000,34.228
3193,2.966,0.000,0.000,0.000,0.000,0.000,0.000,34.218
3326,2.966,0.000,0.000,0.000,0.000,0.000,0.000,34.239
3459,2.966,0.000,0.000,0.000,0.000,0.000,0.000,34.249
3592,2.966,0.000,0.000,0.000,0.000,0.000,0.000,34.232
3724,3.370,1.625,0.056,0.000,0.183,0.000,0.001,34.190
3857,3.475,1.625,0.116,0.000,0.389,0.000,0.000,34.340
3990,3.493,1.625,0.176,0.000,0.599,0.000,0.000,34.658
4123,3.506,1.625,0.236,0.000,0.809,0.000,0.000,35.044
4256,3.520,1.625,0.296,0.000,1.020,0.000,0.000,35.311
4389,3.535,1.625,0.356,0.000,1.231,0.000,0.000,35.562
4522,3.550,1.625,0.416,0.000,1.444,0.000,0.000,35.735
4655,3.565,1.625,0.476,0.000,1.658,0.000,0.000,35.809
4788,3.583,1.625,0.536,0.000,1.872,0.000,0.000,35.845
4921,3.600,1.625,0.596,0.000,2.088,0.000,0.000,35.883
5054,3.614,1.625,0.656,0.000,2.305,0.000,0.000,35.844
5187,3.627,1.625,0.717,0.000,2.522,0.000,0.000,35.752
5320,3.639,1.625,0.777,0.000,2.740,0.000,0.000,35.823
5453,3.651,1.625,0.837,0.000,2.959,0.000,0.000,35.800
5586,3.663,1.625,0.897,0.000,3.179,0.000,0.000,35.855
5719,3.675,1.625,0.957,0.000,3.399,0.000,0.000,35.913
5852,3.688,1.625,1.017,0.000,3.620,0.000,0.000,35.940
5985,3.700,1.625,1.077,0.000,3.842,0.000,0.000,36.001
6118,3.712,1.625,1.137,0.000,4.064,0.000,0.000,36.103
6251,3.723,1.625,1.197,0.000,4.288,0.000,0.000,36.162
6384,3.734,1.625,1.257,0.000,4.512,0.000,0.000,36.239
6517,3.745,1.625,1.317,0.000,4.736,0.000,0.000,36.251
6650,3.756,1.625,1.377,0.000,4.961,0.000,0.000,36.314
6783,3.767,1.625,1.437,0.000,5.187,0.000,0.000,36.370
6916,3.780,1.625,1.497,0.000,5.414,0.000,0.000,36.419
7049,3.792,1.625,1.557,0.000,5.641,0.000,0.000,36.361
7182,3.806,1.625,1.617,0.000,5.869,0.000,0.000,36.429
7315,3.820,1.625,1.677,0.000,6.098,0.000,0.000,36.418
7448,3.835,1.625,1.737,0.000,6.328,0.000,0.000,36.441
7581,3.851,1.625,1.797,0.000,6.559,0.000,0.000,36.479
7714,3.867,1.625,1.857,0.000,6.790,0.000,0.000,36.470
7847,3.883,1.625,1.917,0.000,7.023,0.000,0.000,36.466
7980,3.900,1.625,1.977,0.000,7.257,0.000,0.000,36.476
8113,3.917,1.625,2.038,0.000,7.491,0.000,0.000,36.435
8246,3.934,1.625,2.098,0.000,7.727,0.000,0.000,36.470
8379,3.951,1.625,2.158,0.000,7.964,0.000,0.000,36.435
8512,3.968,1.625,2.218,0.000,8.202,0.000,0.000,36.407
8645,3.984,1.625,2.278,0.000,8.440,0.000,0.000,36.394
8778,4.001,1.625,2.338,0.000,8.680,0.000,0.000,36.362
8911,4.017,1.625,2.398,0.000,8.921,0.000,0.000,36.376
9044,4.035,1.625,2.458,0.000,9.163,0.000,0.000,36.293
9177,4.052,1.625,2.518,0.000,9.405,0.000,0.000,36.368
9310,4.072,1.625,2.578,0.000,9.649,0.000,0.000,36.424
9443,4.092,1.625,2.638,0.000,9.894,0.000,0.000,36.464
9576,4.114,1.625,2.698,0.000,10.141,0.000,0.000,36.451
9709,4.137,1.625,2.758,0.000,10.388,0.000,0.000,36.463
9842,4.161,1.625,2.818,0.000,10.637,0.000,0.000,36.519
9975,4.185,1.625,2.878,0.000,10.888,0.000,0.000,36.575
10107,4.200,1.498,2.937,0.000,11.135,0.000,0.000,36.609
10240,4.200,1.285,2.988,0.000,11.350,0.000,0.000,36.584
10373,4.200,1.127,3.033,0.000,11.536,0.000,0.000,36.398
10506,4.200,0.997,3.072,0.000,11.701,0.000,0.000,36.235
10639,4.200,0.889,3.107,0.000,11.847,0.000,0.000,36.052
10772,4.200,0.791,3.138,0.000,11.977,0.000,0.000,35.827
10905,4.200,0.700,3.165,0.000,12.092,0.000,0.000,35.666
11038,4.200,0.618,3.189,0.000,12.195,0.000,0.000,35.485
11171,4.200,0.542,3.211,0.000,12.284,0.000,0.000,35.306
11304,4.200,0.474,3.229,0.000,12.363,0.000,0.000,35.245
11437,4.200,0.412,3.246,0.000,12.432,0.000,0.000,35.049
11570,4.200,0.357,3.260,0.000,12.491,0.000,0.000,34.971
11703,4.200,0.308,3.272,0.000,12.543,0.000,0.000,34.852
11836,4.200,0.264,3.283,0.000,12.587,0.000,0.000,34.779
11969,4.200,0.228,3.292,0.000,12.625,0.000,0.000,34.703
12102,4.200,0.195,3.300,0.000,12.658,0.000,0.000,34.576
12235,4.200,0.169,3.306,0.000,12.686,0.000,0.000,34.563
12368,4.200,0.146,3.312,0.000,12.710,0.000,0.000,34.552
12501,4.200,0.127,3.317,0.000,12.732,0.000,0.000,34.462
12634,4.200,0.110,3.322,0.000,12.750,0.000,0.000,34.418
12767,4.200,0.096,3.325,0.000,12.766,0.000,0.000,34.424
12900,4.200,0.083,3.329,0.000,12.780,0.000,0.000,34.405
13033,4.200,0.074,3.332,0.000,12.792,0.000,0.000,34.347
13166,4.196,0.000,3.334,0.000,12.802,0.000,0.000,34.369
13299,4.193,0.000,3.334,0.000,12.802,0.000,0.000,34.266
13432,4.192,0.000,3.334,0.000,12.802,0.000,0.000,34.303
13565,4.191,0.000,3.334,0.000,12.802,0.000,0.000,34.272
13698,4.190,0.000,3.334,0.000,12.802,0.000,0.000,34.293
13831,4.189,0.000,3.334,0.000,12.802,0.000,0.000,34.239
13964,4.188,0.000,3.334,0.000,12.802,0.000,0.000,34.267
14097,4.188,0.000,3.334,0.000,12.802,0.000,0.000,34.246
14230,4.187,0.000,3.334,0.000,12.802,0.000,0.000,34.224
14363,4.187,0.000,3.334,0.000,12.802,0.000,0.000,34.246
14496,4.186,0.000,3.334,0.000,12.802,0.000,0.000,34.303
14629,4.186,0.000,3.334,0.000,12.802,0.000,0.000,34.242
14762,4.185,0.000,3.334,0.000,12.802,0.000,0.000,34.236
14895,4.185,0.000,3.334,0.000,12.802,0.000,0.000,34.270
15028,4.184,0.000,3.334,0.000,12.802,0.000,0.000,34.244
15161,4.184,0.000,3.334,0.000,12.802,0.000,0.000,34.234
15294,4.184,0.000,3.334,0.000,12.802,0.000,0.000,34.218
15427,4.184,0.000,3.334,0.000,12.802,0.000,0.000,34.246
15560,4.183,0.000,3.334,0.000,12.802,0.000,0.000,34.236
15693,4.183,0.000,3.334,0.000,12.802,0.000,0.000,34.275
15826,4.183,0.000,3.334,0.000,12.802,0.000,0.000,34.230
15959,4.183,0.000,3.334,0.000,12.802,0.000,0.000,34.265
16092,4.182,0.000,3.334,0.000,12.802,0.000,0.000,34.237
16225,4.182,0.000,3.334,0.000,12.802,0.000,0.000,34.240
16358,4.182,0.000,3.334,0.000,12.802,0.000,0.000,34.226
16491,4.182,0.000,3.334,0.000,12.802,0.000,0.000,34.232
16624,4.182,0.000,3.334,0.000,12.802,0.000,0.000,34.242
16757,4.182,0.000,3.334,0.000,12.802,0.000,0.000,34.249
16889,3.921,-3.350,3.334,0.123,12.802,0.486,0.000,35.042
17022,3.881,-3.350,3.334,0.247,12.802,0.968,0.000,35.885
17155,3.840,-3.350,3.334,0.370,12.802,1.446,0.000,36.575
17288,3.796,-3.350,3.334,0.494,12.802,1.919,0.000,37.120
17421,3.753,-3.350,3.334,0.618,12.802,2.386,0.000,37.512
17554,3.713,-3.350,3.334,0.742,12.802,2.848,0.000,37.823
17687,3.677,-3.350,3.334,0.865,12.802,3.305,0.000,38.090
17820,3.642,-3.350,3.334,0.989,12.802,3.758,0.000,38.301
17953,3.605,-3.350,3.334,1.113,12.802,4.207,0.000,38.512
18086,3.567,-3.350,3.334,1.237,12.802,4.651,0.000,38.745
18219,3.528,-3.350,3.334,1.361,12.802,5.090,0.000,38.933
18352,3.490,-3.350,3.334,1.484,12.802,5.524,0.000,39.137
18485,3.455,-3.350,3.334,1.608,12.802,5.954,0.000,39.268
18618,3.422,-3.350,3.334,1.732,12.802,6.379,0.000,39.375
18751,3.392,-3.350,3.334,1.856,12.802,6.801,0.000,39.574
18884,3.363,-3.350,3.334,1.979,12.802,7.219,0.000,39.811
19017,3.336,-3.350,3.334,2.103,12.802,7.633,0.000,39.955
19150,3.310,-3.350,3.334,2.227,12.802,8.045,0.000,40.183
19283,3.280,-3.350,3.334,2.351,12.802,8.453,0.000,40.314
19416,3.246,-3.350,3.334,2.474,12.802,8.856,0.000,40.494
19549,3.206,-3.350,3.334,2.598,12.802,9.256,0.000,40.670
19682,3.162,-3.350,3.334,2.722,12.802,9.650,0.000,40.858
19815,3.110,-3.350,3.334,2.846,12.802,10.038,0.000,41.141
19948,3.044,-3.350,3.334,2.970,12.802,10.419,-0.001,41.494
20081,2.939,-3.350,3.334,3.093,12.802,10.790,-0.001,42.251
20214,2.714,-3.350,3.334,3.217,12.802,11.142,-0.003,43.567
20346,3.080,0.000,3.334,3.268,12.802,11.276,0.001,43.628
20479,3.101,0.000,3.334,3.268,12.802,11.276,0.000,41.445
20612,3.109,0.000,3.334,3.268,12.802,11.276,0.000,39.862
20745,3.114,0.000,3.334,3.268,12.802,11.276,0.000,38.497
20878,3.118,0.000,3.334,3.268,12.802,11.276,0.000,37.503
21011,3.121,0.000,3.334,3.268,12.802,11.276,0.000,36.731
21144,3.123,0.000,3.334,3.268,12.802,11.276,0.000,36.149
21277,3.126,0.000,3.334,3.268,12.802,11.276,0.000,35.677
21410,3.127,0.000,3.334,3.268,12.802,11.276,0.000,35.346
21543,3.129,0.000,3.334,3.268,12.802,11.276,0.000,35.091
21676,3.130,0.000,3.334,3.268,12.802,11.276,0.000,34.914
21809,3.132,0.000,3.334,3.268,12.802,11.276,0.000,34.788
21942,3.133,0.000,3.334,3.268,12.802,11.276,0.000,34.630
22075,3.134,0.000,3.334,3.268,12.802,11.276,0.000,34.565
22208,3.135,0.000,3.334,3.268,12.802,11.276,0.000,34.489
22341,3.136,0.000,3.334,3.268,12.802,11.276,0.000,34.416
22474,3.137,0.000,3.334,3.268,12.802,11.276,0.000,34.364
22607,3.138,0.000,3.334,3.268,12.802,11.276,0.000,34.330
22740,3.139,0.000,3.334,3.268,12.802,11.276,0.000,34.323
22873,3.140,0.000,3.334,3.268,12.802,11.276,0.000,34.305
23006,3.141,0.000,3.334,3.268,12.802,11.276,0.000,34.292
23139,3.142,0.000,3.334,3.268,12.802,11.276,0.000,34.333
23272,3.142,0.000,3.334,3.268,12.802,11.276,0.000,34.263
23405,3.143,0.000,3.334,3.268,12.802,11.276,0.000,34.272
23538,3.144,0.000,3.334,3.268,12.802,11.276,0.000,34.272
23671,3.144,0.000,3.334,3.268,12.802,11.276,0.000,34.191
23804,3.145,0.000,3.334,3.268,12.802,11.276,0.000,34.229
23869,3.145,0.000,3.334,3.268,12.802,11.276,0.000,34.268

File: 6.csv
time_s,voltage_v,current_a,chargecapacity_ah,dischargecapacity_ah,charge_energy_wh,discharge_energy_wh,voltagedot_v_per_s,temp_degc
1,2.912,0.000,0.000,0.000,0.000,0.000,0.000,34.421
137,2.912,0.000,0.000,0.000,0.000,0.000,0.000,34.419
273,2.913,0.000,0.000,0.000,0.000,0.000,0.000,34.435
409,2.913,0.000,0.000,0.000,0.000,0.000,0.000,34.496
545,2.913,0.000,0.000,0.000,0.000,0.000,0.000,34.450
681,2.914,0.000,0.000,0.000,0.000,0.000,0.000,34.446
817,2.914,0.000,0.000,0.000,0.000,0.000,0.000,34.497
953,2.914,0.000,0.000,0.000,0.000,0.000,0.000,34.486
1089,2.915,0.000,0.000,0.000,0.000,0.000,0.000,34.454
1225,2.915,0.000,0.000,0.000,0.000,0.000,0.000,34.455
1361,2.915,0.000,0.000,0.000,0.000,0.000,0.000,34.446
1497,2.915,0.000,0.000,0.000,0.000,0.000,0.000,34.449
1633,2.916,0.000,0.000,0.000,0.000,0.000,0.000,34.398
1769,2.916,0.000,0.000,0.000,0.000,0.000,0.000,34.451
1905,2.916,0.000,0.000,0.000,0.000,0.000,0.000,34.449
2041,2.917,0.000,0.000,0.000,0.000,0.000,0.000,34.451
2177,2.917,0.000,0.000,0.000,0.000,0.000,0.000,34.429
2313,2.917,0.000,0.000,0.000,0.000,0.000,0.000,34.438
2449,2.918,0.000,0.000,0.000,0.000,0.000,0.000,34.468
2585,2.918,0.000,0.000,0.000,0.000,0.000,0.000,34.476
2721,2.918,0.000,0.000,0.000,0.000,0.000,0.000,34.480
2857,2.918,0.000,0.000,0.000,0.000,0.000,0.000,34.467
2993,2.919,0.000,0.000,0.000,0.000,0.000,0.000,34.424
3129,2.919,0.000,0.000,0.000,0.000,0.000,0.000,34.432
3265,2.919,0.000,0.000,0.000,0.000,0.000,0.000,34.468
3401,2.920,0.000,0.000,0.000,0.000,0.000,0.000,34.446
3537,2.920,0.000,0.000,0.000,0.000,0.000,0.000,34.450
3672,3.313,1.625,0.033,0.000,0.105,0.000,0.002,34.430
3808,3.468,1.625,0.094,0.000,0.314,0.000,0.001,34.524
3944,3.531,1.625,0.155,0.000,0.529,0.000,0.000,34.753
4080,3.543,1.625,0.217,0.000,0.746,0.000,0.000,35.185
4216,3.557,1.625,0.278,0.000,0.964,0.000,0.000,35.575
4352,3.571,1.625,0.340,0.000,1.183,0.000,0.000,35.851
4488,3.586,1.625,0.401,0.000,1.403,0.000,0.000,36.085
4624,3.601,1.625,0.462,0.000,1.624,0.000,0.000,36.286
4760,3.617,1.625,0.524,0.000,1.845,0.000,0.000,36.387
4896,3.635,1.625,0.585,0.000,2.068,0.000,0.000,36.379
5032,3.651,1.625,0.647,0.000,2.291,0.000,0.000,36.352
5168,3.664,1.625,0.708,0.000,2.516,0.000,0.000,36.317
5304,3.677,1.625,0.769,0.000,2.741,0.000,0.000,36.355
5440,3.690,1.625,0.831,0.000,2.968,0.000,0.000,36.356
5576,3.702,1.625,0.892,0.000,3.195,0.000,0.000,36.389
5712,3.716,1.625,0.954,0.000,3.422,0.000,0.000,36.462
5848,3.728,1.625,1.015,0.000,3.651,0.000,0.000,36.476
5984,3.741,1.625,1.076,0.000,3.880,0.000,0.000,36.536
6120,3.754,1.625,1.138,0.000,4.110,0.000,0.000,36.614
6256,3.766,1.625,1.199,0.000,4.341,0.000,0.000,36.703
6392,3.777,1.625,1.261,0.000,4.573,0.000,0.000,36.776
6528,3.788,1.625,1.322,0.000,4.805,0.000,0.000,36.828
6664,3.799,1.625,1.383,0.000,5.038,0.000,0.000,36.920
6800,3.811,1.625,1.445,0.000,5.271,0.000,0.000,36.931
6936,3.824,1.625,1.506,0.000,5.506,0.000,0.000,37.023
7072,3.837,1.625,1.568,0.000,5.741,0.000,0.000,37.016
7208,3.851,1.625,1.629,0.000,5.977,0.000,0.000,37.024
7344,3.866,1.625,1.690,0.000,6.214,0.000,0.000,37.063
7480,3.882,1.625,1.752,0.000,6.452,0.000,0.000,37.156
7616,3.898,1.625,1.813,0.000,6.691,0.000,0.000,37.147
7752,3.915,1.625,1.875,0.000,6.931,0.000,0.000,37.150
7888,3.933,1.625,1.936,0.000,7.172,0.000,0.000,37.147
8024,3.951,1.625,1.997,0.000,7.414,0.000,0.000,37.166
8160,3.968,1.625,2.059,0.000,7.657,0.000,0.000,37.206
8296,3.986,1.625,2.120,0.000,7.901,0.000,0.000,37.200
8432,4.004,1.625,2.182,0.000,8.146,0.000,0.000,37.219
8568,4.021,1.625,2.243,0.000,8.393,0.000,0.000,37.186
8704,4.038,1.625,2.304,0.000,8.640,0.000,0.000,37.205
8840,4.056,1.625,2.366,0.000,8.888,0.000,0.000,37.121
8976,4.073,1.625,2.427,0.000,9.138,0.000,0.000,37.183
9112,4.093,1.625,2.489,0.000,9.389,0.000,0.000,37.162
9248,4.112,1.625,2.550,0.000,9.641,0.000,0.000,37.202
9384,4.132,1.625,2.611,0.000,9.894,0.000,0.000,37.180
9520,4.154,1.625,2.673,0.000,10.148,0.000,0.000,37.190
9656,4.177,1.625,2.734,0.000,10.404,0.000,0.000,37.247
9792,4.200,1.606,2.795,0.000,10.660,0.000,0.000,37.322
9928,4.200,1.390,2.852,0.000,10.896,0.000,0.000,37.304
10064,4.200,1.229,2.901,0.000,11.104,0.000,0.000,37.207
10200,4.200,1.093,2.945,0.000,11.287,0.000,0.000,37.041
10336,4.200,0.980,2.984,0.000,11.452,0.000,0.000,36.792
10472,4.200,0.886,3.019,0.000,11.599,0.000,0.000,36.613
10608,4.200,0.806,3.051,0.000,11.733,0.000,0.000,36.407
10744,4.200,0.737,3.080,0.000,11.856,0.000,0.000,36.204
10880,4.200,0.674,3.107,0.000,11.967,0.000,0.000,36.048
11016,4.200,0.617,3.131,0.000,12.070,0.000,0.000,35.843
11152,4.200,0.564,3.153,0.000,12.163,0.000,0.000,35.697
11288,4.200,0.514,3.174,0.000,12.249,0.000,0.000,35.555
11424,4.200,0.466,3.192,0.000,12.327,0.000,0.000,35.475
11560,4.200,0.422,3.209,0.000,12.397,0.000,0.000,35.351
11696,4.200,0.380,3.224,0.000,12.460,0.000,0.000,35.275
11832,4.200,0.341,3.238,0.000,12.517,0.000,0.000,35.162
11968,4.200,0.305,3.250,0.000,12.569,0.000,0.000,35.089
12104,4.200,0.272,3.261,0.000,12.614,0.000,0.000,34.979
12240,4.200,0.242,3.270,0.000,12.655,0.000,0.000,34.954
12376,4.200,0.214,3.279,0.000,12.691,0.000,0.000,34.879
12512,4.200,0.190,3.287,0.000,12.723,0.000,0.000,34.803
12648,4.200,0.169,3.293,0.000,12.752,0.000,0.000,34.786
12784,4.200,0.149,3.299,0.000,12.777,0.000,0.000,34.762
12920,4.200,0.133,3.305,0.000,12.799,0.000,0.000,34.720
13056,4.200,0.118,3.309,0.000,12.819,0.000,0.000,34.701
13192,4.200,0.105,3.314,0.000,12.837,0.000,0.000,34.636
13328,4.200,0.093,3.317,0.000,12.852,0.000,0.000,34.622
13464,4.200,0.083,3.321,0.000,12.866,0.000,0.000,34.582
13600,4.200,0.074,3.324,0.000,12.879,0.000,0.000,34.566
13736,4.200,0.067,3.326,0.000,12.890,0.000,0.000,34.539
13871,4.192,0.000,3.327,0.000,12.892,0.000,0.000,34.552
14007,4.191,0.000,3.327,0.000,12.892,0.000,0.000,34.518
14143,4.189,0.000,3.327,0.000,12.892,0.000,0.000,34.554
14279,4.188,0.000,3.327,0.000,12.892,0.000,0.000,34.513
14415,4.188,0.000,3.327,0.000,12.892,0.000,0.000,34.511
14551,4.187,0.000,3.327,0.000,12.892,0.000,0.000,34.499
14687,4.186,0.000,3.327,0.000,12.892,0.000,0.000,34.526
14823,4.186,0.000,3.327,0.000,12.892,0.000,0.000,34.502
14959,4.185,0.000,3.327,0.000,12.892,0.000,0.000,34.519
15095,4.185,0.000,3.327,0.000,12.892,0.000,0.000,34.469
15231,4.185,0.000,3.327,0.000,12.892,0.000,0.000,34.499
15367,4.184,0.000,3.327,0.000,12.892,0.000,0.000,34.486
15503,4.184,0.000,3.327,0.000,12.892,0.000,0.000,34.527
15639,4.183,0.000,3.327,0.000,12.892,0.000,0.000,34.463
15775,4.183,0.000,3.327,0.000,12.892,0.000,0.000,34.468
15911,4.183,0.000,3.327,0.000,12.892,0.000,0.000,34.451
16047,4.183,0.000,3.327,0.000,12.892,0.000,0.000,34.508
16183,4.182,0.000,3.327,0.000,12.892,0.000,0.000,34.502
16319,4.182,0.000,3.327,0.000,12.892,0.000,0.000,34.464
16455,4.182,0.000,3.327,0.000,12.892,0.000,0.000,34.451
16591,4.182,0.000,3.327,0.000,12.892,0.000,0.000,34.431
16727,4.182,0.000,3.327,0.000,12.892,0.000,0.000,34.470
16863,4.181,0.000,3.327,0.000,12.892,0.000,0.000,34.513
16999,4.181,0.000,3.327,0.000,12.892,0.000,0.000,34.495
17135,4.181,0.000,3.327,0.000,12.892,0.000,0.000,34.460
17271,4.181,0.000,3.327,0.000,12.892,0.000,0.000,34.496
17406,3.862,-3.350,3.327,0.044,12.892,0.170,-0.001,34.788
17542,3.808,-3.350,3.327,0.170,12.892,0.655,0.000,35.900
17678,3.767,-3.350,3.327,0.297,12.892,1.134,0.000,36.838
17814,3.723,-3.350,3.327,0.423,12.892,1.608,-0.001,37.583
17950,3.676,-3.350,3.327,0.550,12.892,2.077,0.000,38.025
18086,3.633,-3.350,3.327,0.677,12.892,2.539,0.000,38.503
18222,3.594,-3.350,3.327,0.803,12.892,2.996,0.000,38.812
18358,3.557,-3.350,3.327,0.930,12.892,3.449,0.000,39.105
18494,3.519,-3.350,3.327,1.056,12.892,3.897,0.000,39.450
18630,3.480,-3.350,3.327,1.183,12.892,4.340,0.000,39.777
18766,3.440,-3.350,3.327,1.309,12.892,4.778,0.000,40.059
18902,3.400,-3.350,3.327,1.436,12.892,5.210,0.000,40.220
19038,3.363,-3.350,3.327,1.563,12.892,5.638,0.000,40.570
19174,3.329,-3.350,3.327,1.689,12.892,6.062,0.000,40.756
19310,3.298,-3.350,3.327,1.816,12.892,6.481,0.000,40.947
19446,3.269,-3.350,3.327,1.942,12.892,6.897,0.000,41.243
19582,3.242,-3.350,3.327,2.069,12.892,7.309,0.000,41.397
19718,3.215,-3.350,3.327,2.195,12.892,7.717,0.000,41.659
19854,3.185,-3.350,3.327,2.322,12.892,8.122,0.000,41.894
19990,3.151,-3.350,3.327,2.449,12.892,8.523,0.000,41.932
20126,3.111,-3.350,3.327,2.575,12.892,8.920,-0.001,42.198
20262,3.066,-3.350,3.327,2.702,12.892,9.311,0.000,42.433
20398,3.015,-3.350,3.327,2.828,12.892,9.696,-0.001,42.734
20534,2.952,-3.350,3.327,2.955,12.892,10.073,0.000,43.167
20670,2.858,-3.350,3.327,3.081,12.892,10.442,-0.001,43.868
20806,2.667,-3.350,3.327,3.208,12.892,10.793,-0.003,45.106
20941,3.095,0.000,3.327,3.257,12.892,10.921,0.000,44.949
21077,3.115,0.000,3.327,3.257,12.892,10.921,0.000,42.702
21213,3.122,0.000,3.327,3.257,12.892,10.921,0.000,40.959
21349,3.126,0.000,3.327,3.257,12.892,10.921,0.000,39.481
21485,3.130,0.000,3.327,3.257,12.892,10.921,0.000,38.416
21621,3.132,0.000,3.327,3.257,12.892,10.921,0.000,37.547
21757,3.134,0.000,3.327,3.257,12.892,10.921,0.000,36.865
21893,3.136,0.000,3.327,3.257,12.892,10.921,0.000,36.382
22029,3.138,0.000,3.327,3.257,12.892,10.921,0.000,35.927
22165,3.139,0.000,3.327,3.257,12.892,10.921,0.000,35.617
22301,3.140,0.000,3.327,3.257,12.892,10.921,0.000,35.413
22437,3.141,0.000,3.327,3.257,12.892,10.921,0.000,35.176
22573,3.142,0.000,3.327,3.257,12.892,10.921,0.000,35.023
22709,3.143,0.000,3.327,3.257,12.892,10.921,0.000,34.917
22845,3.144,0.000,3.327,3.257,12.892,10.921,0.000,34.843
22981,3.145,0.000,3.327,3.257,12.892,10.921,0.000,34.743
23117,3.146,0.000,3.327,3.257,12.892,10.921,0.000,34.721
23253,3.146,0.000,3.327,3.257,12.892,10.921,0.000,34.672
23389,3.147,0.000,3.327,3.257,12.892,10.921,0.000,34.577
23525,3.148,0.000,3.327,3.257,12.892,10.921,0.000,34.603
23661,3.148,0.000,3.327,3.257,12.892,10.921,0.000,34.542
23797,3.149,0.000,3.327,3.257,12.892,10.921,0.000,34.520
23933,3.149,0.000,3.327,3.257,12.892,10.921,0.000,34.535
24069,3.150,0.000,3.327,3.257,12.892,10.921,0.000,34.512
24205,3.150,0.000,3.327,3.257,12.892,10.921,0.000,34.541
24341,3.151,0.000,3.327,3.257,12.892,10.921,0.000,34.492
24459,3.151,0.000,3.327,3.257,12.892,10.921,0.000,34.456