Folder: EE-292X-Battery-Modeling/data/T35/2C (part 2)

File: 3.csv
time_s,voltage_v,current_a,chargecapacity_ah,dischargecapacity_ah,charge_energy_wh,discharge_energy_wh,voltagedot_v_per_s,temp_degc
1,3.290,0.000,0.000,0.000,0.000,0.000,0.000,34.220
123,3.290,0.000,0.000,0.000,0.000,0.000,0.000,34.212
245,3.290,0.000,0.000,0.000,0.000,0.000,0.000,34.204
367,3.291,0.000,0.000,0.000,0.000,0.000,0.000,34.223
489,3.291,0.000,0.000,0.000,0.000,0.000,0.000,34.308
611,3.291,0.000,0.000,0.000,0.000,0.000,0.000,34.225
733,3.291,0.000,0.000,0.000,0.000,0.000,0.000,34.223
855,3.291,0.000,0.000,0.000,0.000,0.000,0.000,34.223
977,3.291,0.000,0.000,0.000,0.000,0.000,0.000,34.197
1099,3.291,0.000,0.000,0.000,0.000,0.000,0.000,34.286
1221,3.291,0.000,0.000,0.000,0.000,0.000,0.000,34.211
1343,3.291,0.000,0.000,0.000,0.000,0.000,0.000,34.218
1465,3.291,0.000,0.000,0.000,0.000,0.000,0.000,34.238
1587,3.291,0.000,0.000,0.000,0.000,0.000,0.000,34.221
1709,3.291,0.000,0.000,0.000,0.000,0.000,0.000,34.211
1831,3.291,0.000,0.000,0.000,0.000,0.000,0.000,34.227
1953,3.291,0.000,0.000,0.000,0.000,0.000,0.000,34.215
2075,3.291,0.000,0.000,0.000,0.000,0.000,0.000,34.222
2197,3.291,0.000,0.000,0.000,0.000,0.000,0.000,34.187
2319,3.291,0.000,0.000,0.000,0.000,0.000,0.000,34.211
2441,3.291,0.000,0.000,0.000,0.000,0.000,0.000,34.229
2563,3.291,0.000,0.000,0.000,0.000,0.000,0.000,34.229
2685,3.292,0.000,0.000,0.000,0.000,0.000,0.000,34.227
2807,3.292,0.000,0.000,0.000,0.000,0.000,0.000,34.219
2929,3.292,0.000,0.000,0.000,0.000,0.000,0.000,34.201
3051,3.292,0.000,0.000,0.000,0.000,0.000,0.000,34.244
3173,3.292,0.000,0.000,0.000,0.000,0.000,0.000,34.192
3295,3.292,0.000,0.000,0.000,0.000,0.000,0.000,34.206
3417,3.292,0.000,0.000,0.000,0.000,0.000,0.000,34.207
3539,3.292,0.000,0.000,0.000,0.000,0.000,0.000,34.218
3660,3.505,1.625,0.027,0.000,0.094,0.000,0.000,34.284
3782,3.519,1.625,0.082,0.000,0.288,0.000,0.000,34.650
3904,3.533,1.625,0.137,0.000,0.482,0.000,0.000,34.908
4026,3.547,1.625,0.192,0.000,0.677,0.000,0.000,35.134
4148,3.560,1.625,0.247,0.000,0.873,0.000,0.000,35.239
4270,3.574,1.625,0.302,0.000,1.069,0.000,0.000,35.360
4392,3.588,1.625,0.358,0.000,1.266,0.000,0.000,35.360
4514,3.604,1.625,0.413,0.000,1.465,0.000,0.000,35.359
4636,3.618,1.625,0.468,0.000,1.663,0.000,0.000,35.336
4758,3.631,1.625,0.523,0.000,1.863,0.000,0.000,35.241
4880,3.642,1.625,0.578,0.000,2.063,0.000,0.000,35.266
5002,3.652,1.625,0.633,0.000,2.264,0.000,0.000,35.271
5124,3.663,1.625,0.688,0.000,2.466,0.000,0.000,35.248
5246,3.675,1.625,0.743,0.000,2.668,0.000,0.000,35.281
5368,3.686,1.625,0.798,0.000,2.871,0.000,0.000,35.352
5490,3.698,1.625,0.853,0.000,3.074,0.000,0.000,35.340
5612,3.709,1.625,0.908,0.000,3.278,0.000,0.000,35.380
5734,3.720,1.625,0.963,0.000,3.482,0.000,0.000,35.451
5856,3.732,1.625,1.018,0.000,3.688,0.000,0.000,35.469
5978,3.742,1.625,1.074,0.000,3.894,0.000,0.000,35.524
6100,3.752,1.625,1.129,0.000,4.100,0.000,0.000,35.535
6222,3.763,1.625,1.184,0.000,4.307,0.000,0.000,35.523
6344,3.773,1.625,1.239,0.000,4.514,0.000,0.000,35.574
6466,3.783,1.625,1.294,0.000,4.722,0.000,0.000,35.615
6588,3.794,1.625,1.349,0.000,4.931,0.000,0.000,35.643
6710,3.805,1.625,1.404,0.000,5.140,0.000,0.000,35.615
6832,3.817,1.625,1.459,0.000,5.350,0.000,0.000,35.676
6954,3.830,1.625,1.514,0.000,5.561,0.000,0.000,35.654
7076,3.843,1.625,1.569,0.000,5.772,0.000,0.000,35.680
7198,3.857,1.625,1.624,0.000,5.984,0.000,0.000,35.672
7320,3.872,1.625,1.679,0.000,6.197,0.000,0.000,35.687
7442,3.887,1.625,1.734,0.000,6.411,0.000,0.000,35.709
7564,3.902,1.625,1.790,0.000,6.625,0.000,0.000,35.666
7686,3.918,1.625,1.845,0.000,6.841,0.000,0.000,35.654
7808,3.934,1.625,1.900,0.000,7.057,0.000,0.000,35.641
7930,3.950,1.625,1.955,0.000,7.274,0.000,0.000,35.649
8052,3.965,1.625,2.010,0.000,7.492,0.000,0.000,35.633
8174,3.981,1.625,2.065,0.000,7.711,0.000,0.000,35.635
8296,3.997,1.625,2.120,0.000,7.930,0.000,0.000,35.587
8418,4.012,1.625,2.175,0.000,8.151,0.000,0.000,35.621
8540,4.028,1.625,2.230,0.000,8.372,0.000,0.000,35.573
8662,4.043,1.625,2.285,0.000,8.595,0.000,0.000,35.548
8784,4.059,1.625,2.340,0.000,8.818,0.000,0.000,35.601
8906,4.076,1.625,2.395,0.000,9.042,0.000,0.000,35.557
9028,4.093,1.625,2.450,0.000,9.267,0.000,0.000,35.589
9150,4.112,1.625,2.506,0.000,9.493,0.000,0.000,35.643
9272,4.131,1.625,2.561,0.000,9.720,0.000,0.000,35.689
9394,4.153,1.625,2.616,0.000,9.948,0.000,0.000,35.710
9516,4.174,1.625,2.671,0.000,10.177,0.000,0.000,35.773
9638,4.197,1.625,2.726,0.000,10.408,0.000,0.000,35.819
9760,4.200,1.419,2.778,0.000,10.624,0.000,0.000,35.744
9882,4.200,1.254,2.823,0.000,10.814,0.000,0.000,35.695
10004,4.200,1.119,2.863,0.000,10.983,0.000,0.000,35.610
10126,4.200,1.008,2.899,0.000,11.134,0.000,0.000,35.446
10248,4.200,0.913,2.931,0.000,11.270,0.000,0.000,35.270
10370,4.200,0.832,2.961,0.000,11.394,0.000,0.000,35.161
10492,4.200,0.759,2.988,0.000,11.507,0.000,0.000,35.090
10614,4.200,0.693,3.012,0.000,11.611,0.000,0.000,34.972
10736,4.200,0.632,3.035,0.000,11.705,0.000,0.000,34.905
10858,4.200,0.574,3.055,0.000,11.791,0.000,0.000,34.804
10980,4.200,0.519,3.074,0.000,11.868,0.000,0.000,34.697
11102,4.200,0.468,3.090,0.000,11.939,0.000,0.000,34.683
11224,4.200,0.421,3.105,0.000,12.002,0.000,0.000,34.610
11346,4.200,0.377,3.119,0.000,12.059,0.000,0.000,34.588
11468,4.200,0.336,3.131,0.000,12.109,0.000,0.000,34.533
11590,4.200,0.299,3.142,0.000,12.154,0.000,0.000,34.477
11712,4.200,0.265,3.151,0.000,12.194,0.000,0.000,34.451
11834,4.200,0.235,3.160,0.000,12.230,0.000,0.000,34.430
11956,4.200,0.208,3.167,0.000,12.262,0.000,0.000,34.405
12078,4.200,0.185,3.174,0.000,12.290,0.000,0.000,34.381
12200,4.200,0.164,3.180,0.000,12.314,0.000,0.000,34.384
12322,4.200,0.144,3.185,0.000,12.336,0.000,0.000,34.345
12444,4.200,0.128,3.190,0.000,12.355,0.000,0.000,34.315
12566,4.200,0.114,3.194,0.000,12.373,0.000,0.000,34.311
12688,4.200,0.102,3.197,0.000,12.388,0.000,0.000,34.311
12810,4.200,0.090,3.201,0.000,12.402,0.000,0.000,34.265
12932,4.200,0.081,3.204,0.000,12.414,0.000,0.000,34.265
13054,4.200,0.072,3.206,0.000,12.425,0.000,0.000,34.254
13175,4.195,0.000,3.208,0.000,12.433,0.000,0.000,34.242
13297,4.192,0.000,3.208,0.000,12.433,0.000,0.000,34.238
13419,4.191,0.000,3.208,0.000,12.433,0.000,0.000,34.240
13541,4.190,0.000,3.208,0.000,12.433,0.000,0.000,34.217
13663,4.189,0.000,3.208,0.000,12.433,0.000,0.000,34.268
13785,4.188,0.000,3.208,0.000,12.433,0.000,0.000,34.227
13907,4.188,0.000,3.208,0.000,12.433,0.000,0.000,34.261
14029,4.187,0.000,3.208,0.000,12.433,0.000,0.000,34.214
14151,4.187,0.000,3.208,0.000,12.433,0.000,0.000,34.223
14273,4.186,0.000,3.208,0.000,12.433,0.000,0.000,34.229
14395,4.186,0.000,3.208,0.000,12.433,0.000,0.000,34.225
14517,4.185,0.000,3.208,0.000,12.433,0.000,0.000,34.198
14639,4.185,0.000,3.208,0.000,12.433,0.000,0.000,34.177
14761,4.185,0.000,3.208,0.000,12.433,0.000,0.000,34.225
14883,4.184,0.000,3.208,0.000,12.433,0.000,0.000,34.219
15005,4.184,0.000,3.208,0.000,12.433,0.000,0.000,34.216
15127,4.184,0.000,3.208,0.000,12.433,0.000,0.000,34.221
15249,4.184,0.000,3.208,0.000,12.433,0.000,0.000,34.200
15371,4.183,0.000,3.208,0.000,12.433,0.000,0.000,34.210
15493,4.183,0.000,3.208,0.000,12.433,0.000,0.000,34.211
15615,4.183,0.000,3.208,0.000,12.433,0.000,0.000,34.224
15737,4.183,0.000,3.208,0.000,12.433,0.000,0.000,34.208
15859,4.183,0.000,3.208,0.000,12.433,0.000,0.000,34.191
15981,4.182,0.000,3.208,0.000,12.433,0.000,0.000,34.219
16103,4.182,0.000,3.208,0.000,12.433,0.000,0.000,34.217
16225,4.182,0.000,3.208,0.000,12.433,0.000,0.000,34.185
16347,4.182,0.000,3.208,0.000,12.433,0.000,0.000,34.191
16469,4.182,0.000,3.208,0.000,12.433,0.000,0.000,34.216
16591,4.182,0.000,3.208,0.000,12.433,0.000,0.000,34.195
16713,4.181,0.000,3.208,0.000,12.433,0.000,0.000,34.229
16834,3.631,-6.699,3.208,0.128,12.433,0.471,-0.001,35.987
16956,3.562,-6.699,3.208,0.355,12.433,1.287,0.000,39.024
17078,3.485,-6.699,3.208,0.582,12.433,2.087,-0.001,40.946
17200,3.408,-6.699,3.208,0.809,12.433,2.870,-0.001,42.193
17322,3.332,-6.700,3.208,1.036,12.433,3.635,-0.001,43.268
17444,3.258,-6.700,3.208,1.264,12.433,4.383,-0.001,44.361
17566,3.186,-6.700,3.208,1.491,12.433,5.115,-0.001,45.208
17688,3.119,-6.701,3.208,1.718,12.433,5.830,-0.001,45.836
17810,3.056,-6.701,3.208,1.945,12.433,6.531,0.000,46.887
17932,2.991,-6.701,3.208,2.172,12.433,7.218,-0.001,47.616
18054,2.919,-6.702,3.208,2.399,12.433,7.889,-0.001,48.409
18176,2.834,-6.702,3.208,2.626,12.433,8.543,-0.001,49.493
18298,2.728,-6.703,3.208,2.853,12.433,9.175,-0.001,50.505
18420,2.561,-6.704,3.208,3.080,12.433,9.778,-0.002,52.337
18542,3.285,0.000,3.208,3.130,12.433,9.903,0.001,49.228
18664,3.311,0.000,3.208,3.130,12.433,9.903,0.000,44.471
18786,3.318,0.000,3.208,3.130,12.433,9.903,0.000,41.499
18908,3.320,0.000,3.208,3.130,12.433,9.903,0.000,39.430
19030,3.321,0.000,3.208,3.130,12.433,9.903,0.000,38.030
19152,3.322,0.000,3.208,3.130,12.433,9.903,0.000,36.968
19274,3.322,0.000,3.208,3.130,12.433,9.903,0.000,36.287
19396,3.323,0.000,3.208,3.130,12.433,9.903,0.000,35.733
19518,3.323,0.000,3.208,3.130,12.433,9.903,0.000,35.353
19640,3.323,0.000,3.208,3.130,12.433,9.903,0.000,35.071
19762,3.323,0.000,3.208,3.130,12.433,9.903,0.000,34.907
19884,3.323,0.000,3.208,3.130,12.433,9.903,0.000,34.716
20006,3.323,0.000,3.208,3.130,12.433,9.903,0.000,34.597
20128,3.323,0.000,3.208,3.130,12.433,9.903,0.000,34.504
20250,3.323,0.000,3.208,3.130,12.433,9.903,0.000,34.499
20372,3.323,0.000,3.208,3.130,12.433,9.903,0.000,34.409
20494,3.323,0.000,3.208,3.130,12.433,9.903,0.000,34.376
20616,3.323,0.000,3.208,3.130,12.433,9.903,0.000,34.353
20738,3.323,0.000,3.208,3.130,12.433,9.903,0.000,34.343
20860,3.323,0.000,3.208,3.130,12.433,9.903,0.000,34.310
20982,3.323,0.000,3.208,3.130,12.433,9.903,0.000,34.281
21104,3.323,0.000,3.208,3.130,12.433,9.903,0.000,34.235
21226,3.323,0.000,3.208,3.130,12.433,9.903,0.000,34.228
21348,3.323,0.000,3.208,3.130,12.433,9.903,0.000,34.246
21470,3.324,0.000,3.208,3.130,12.433,9.903,0.000,34.245
21592,3.323,0.000,3.208,3.130,12.433,9.903,0.000,34.258
21714,3.324,0.000,3.208,3.130,12.433,9.903,0.000,34.226
21836,3.324,0.000,3.208,3.130,12.433,9.903,0.000,34.261
21958,3.324,0.000,3.208,3.130,12.433,9.903,0.000,34.282
22047,3.324,0.000,3.208,3.130,12.433,9.903,0.000,34.218

File: 4.csv
time_s,voltage_v,current_a,chargecapacity_ah,dischargecapacity_ah,charge_energy_wh,discharge_energy_wh,voltagedot_v_per_s,temp_degc
1,3.167,0.000,0.000,0.000,0.000,0.000,0.000,34.613
124,3.167,0.000,0.000,0.000,0.000,0.000,0.000,34.623
247,3.167,0.000,0.000,0.000,0.000,0.000,0.000,34.599
370,3.167,0.000,0.000,0.000,0.000,0.000,0.000,34.599
493,3.167,0.000,0.000,0.000,0.000,0.000,0.000,34.602
616,3.167,0.000,0.000,0.000,0.000,0.000,0.000,34.632
739,3.167,0.000,0.000,0.000,0.000,0.000,0.000,34.624
862,3.167,0.000,0.000,0.000,0.000,0.000,0.000,34.636
985,3.167,0.000,0.000,0.000,0.000,0.000,0.000,34.604
1108,3.167,0.000,0.000,0.000,0.000,0.000,0.000,34.633
1231,3.167,0.000,0.000,0.000,0.000,0.000,0.000,34.620
1354,3.167,0.000,0.000,0.000,0.000,0.000,0.000,34.575
1477,3.168,0.000,0.000,0.000,0.000,0.000,0.000,34.582
1600,3.168,0.000,0.000,0.000,0.000,0.000,0.000,34.624
1723,3.168,0.000,0.000,0.000,0.000,0.000,0.000,34.633
1846,3.168,0.000,0.000,0.000,0.000,0.000,0.000,34.583
1969,3.168,0.000,0.000,0.000,0.000,0.000,0.000,34.652
2092,3.168,0.000,0.000,0.000,0.000,0.000,0.000,34.613
2215,3.168,0.000,0.000,0.000,0.000,0.000,0.000,34.604
2338,3.168,0.000,0.000,0.000,0.000,0.000,0.000,34.600
2461,3.168,0.000,0.000,0.000,0.000,0.000,0.000,34.603
2584,3.168,0.000,0.000,0.000,0.000,0.000,0.000,34.608
2707,3.168,0.000,0.000,0.000,0.000,0.000,0.000,34.626
2830,3.168,0.000,0.000,0.000,0.000,0.000,0.000,34.637
2953,3.168,0.000,0.000,0.000,0.000,0.000,0.000,34.607
3076,3.168,0.000,0.000,0.000,0.000,0.000,0.000,34.602
3199,3.169,0.000,0.000,0.000,0.000,0.000,0.000,34.609
3322,3.169,0.000,0.000,0.000,0.000,0.000,0.000,34.625
3445,3.169,0.000,0.000,0.000,0.000,0.000,0.000,34.620
3568,3.169,0.000,0.000,0.000,0.000,0.000,0.000,34.617
3690,3.431,1.625,0.041,0.000,0.137,0.000,0.001,34.612
3813,3.485,1.625,0.096,0.000,0.330,0.000,0.000,34.802
3936,3.496,1.625,0.152,0.000,0.524,0.000,0.000,35.110
4059,3.508,1.625,0.207,0.000,0.718,0.000,0.000,35.412
4182,3.521,1.625,0.263,0.000,0.913,0.000,0.000,35.658
4305,3.534,1.625,0.318,0.000,1.109,0.000,0.000,35.834
4428,3.547,1.625,0.374,0.000,1.306,0.000,0.000,36.006
4551,3.562,1.625,0.429,0.000,1.503,0.000,0.000,36.056
4674,3.578,1.625,0.485,0.000,1.701,0.000,0.000,36.069
4797,3.593,1.625,0.540,0.000,1.900,0.000,0.000,36.025
4920,3.607,1.625,0.596,0.000,2.100,0.000,0.000,36.010
5043,3.619,1.625,0.651,0.000,2.301,0.000,0.000,36.017
5166,3.630,1.625,0.707,0.000,2.502,0.000,0.000,35.982
5289,3.641,1.625,0.763,0.000,2.704,0.000,0.000,36.026
5412,3.653,1.625,0.818,0.000,2.907,0.000,0.000,36.027
5535,3.665,1.625,0.874,0.000,3.110,0.000,0.000,36.038
5658,3.676,1.625,0.929,0.000,3.314,0.000,0.000,36.106
5781,3.688,1.625,0.985,0.000,3.518,0.000,0.000,36.154
5904,3.699,1.625,1.040,0.000,3.723,0.000,0.000,36.234
6027,3.711,1.625,1.096,0.000,3.929,0.000,0.000,36.273
6150,3.721,1.625,1.151,0.000,4.135,0.000,0.000,36.292
6273,3.731,1.625,1.207,0.000,4.342,0.000,0.000,36.356
6396,3.742,1.625,1.262,0.000,4.550,0.000,0.000,36.411
6519,3.752,1.625,1.318,0.000,4.758,0.000,0.000,36.460
6642,3.762,1.625,1.373,0.000,4.966,0.000,0.000,36.530
6765,3.773,1.625,1.429,0.000,5.176,0.000,0.000,36.481
6888,3.785,1.625,1.484,0.000,5.386,0.000,0.000,36.529
7011,3.797,1.625,1.540,0.000,5.596,0.000,0.000,36.501
7134,3.810,1.625,1.595,0.000,5.807,0.000,0.000,36.551
7257,3.824,1.625,1.651,0.000,6.019,0.000,0.000,36.560
7380,3.838,1.625,1.707,0.000,6.232,0.000,0.000,36.563
7503,3.853,1.625,1.762,0.000,6.446,0.000,0.000,36.571
7626,3.869,1.625,1.818,0.000,6.660,0.000,0.000,36.558
7749,3.884,1.625,1.873,0.000,6.875,0.000,0.000,36.580
7872,3.900,1.625,1.929,0.000,7.091,0.000,0.000,36.551
7995,3.916,1.625,1.984,0.000,7.308,0.000,0.000,36.581
8118,3.932,1.625,2.040,0.000,7.526,0.000,0.000,36.554
8241,3.948,1.625,2.095,0.000,7.745,0.000,0.000,36.544
8364,3.963,1.625,2.151,0.000,7.965,0.000,0.000,36.546
8487,3.979,1.625,2.206,0.000,8.185,0.000,0.000,36.537
8610,3.994,1.625,2.262,0.000,8.407,0.000,0.000,36.537
8733,4.009,1.625,2.317,0.000,8.629,0.000,0.000,36.507
8856,4.025,1.625,2.373,0.000,8.852,0.000,0.000,36.480
8979,4.041,1.625,2.428,0.000,9.076,0.000,0.000,36.503
9102,4.058,1.625,2.484,0.000,9.301,0.000,0.000,36.535
9225,4.076,1.625,2.539,0.000,9.526,0.000,0.000,36.533
9348,4.095,1.625,2.595,0.000,9.753,0.000,0.000,36.572
9471,4.115,1.625,2.651,0.000,9.981,0.000,0.000,36.652
9594,4.137,1.625,2.706,0.000,10.210,0.000,0.000,36.664
9717,4.159,1.625,2.762,0.000,10.441,0.000,0.000,36.633
9840,4.181,1.625,2.817,0.000,10.672,0.000,0.000,36.746
9963,4.200,1.559,2.872,0.000,10.903,0.000,0.000,36.778
10086,4.200,1.329,2.921,0.000,11.109,0.000,0.000,36.742
10209,4.200,1.171,2.964,0.000,11.288,0.000,0.000,36.597
10332,4.200,1.042,3.001,0.000,11.446,0.000,0.000,36.435
10455,4.200,0.933,3.035,0.000,11.588,0.000,0.000,36.327
10578,4.200,0.837,3.065,0.000,11.714,0.000,0.000,36.107
10701,4.200,0.752,3.093,0.000,11.828,0.000,0.000,35.965
10824,4.200,0.673,3.117,0.000,11.931,0.000,0.000,35.792
10947,4.200,0.601,3.139,0.000,12.022,0.000,0.000,35.643
11070,4.200,0.534,3.158,0.000,12.103,0.000,0.000,35.526
11193,4.200,0.471,3.175,0.000,12.175,0.000,0.000,35.443
11316,4.200,0.415,3.190,0.000,12.239,0.000,0.000,35.307
11439,4.200,0.364,3.204,0.000,12.295,0.000,0.000,35.219
11562,4.200,0.319,3.215,0.000,12.344,0.000,0.000,35.135
11685,4.200,0.280,3.225,0.000,12.387,0.000,0.000,35.054
11808,4.200,0.244,3.234,0.000,12.424,0.000,0.000,35.015
11931,4.200,0.213,3.242,0.000,12.457,0.000,0.000,34.945
12054,4.200,0.186,3.249,0.000,12.485,0.000,0.000,34.866
12177,4.200,0.162,3.255,0.000,12.510,0.000,0.000,34.878
12300,4.200,0.142,3.260,0.000,12.532,0.000,0.000,34.848
12423,4.200,0.125,3.265,0.000,12.551,0.000,0.000,34.833
12546,4.200,0.110,3.269,0.000,12.568,0.000,0.000,34.773
12669,4.200,0.098,3.272,0.000,12.583,0.000,0.000,34.712
12792,4.200,0.086,3.275,0.000,12.596,0.000,0.000,34.689
12915,4.200,0.077,3.278,0.000,12.608,0.000,0.000,34.701
13038,4.200,0.068,3.281,0.000,12.618,0.000,0.000,34.681
13160,4.195,0.000,3.281,0.000,12.622,0.000,0.000,34.653
13283,4.193,0.000,3.281,0.000,12.622,0.000,0.000,34.650
13406,4.191,0.000,3.281,0.000,12.622,0.000,0.000,34.657
13529,4.190,0.000,3.281,0.000,12.622,0.000,0.000,34.650
13652,4.190,0.000,3.281,0.000,12.622,0.000,0.000,34.641
13775,4.189,0.000,3.281,0.000,12.622,0.000,0.000,34.660
13898,4.188,0.000,3.281,0.000,12.622,0.000,0.000,34.628
14021,4.188,0.000,3.281,0.000,12.622,0.000,0.000,34.589
14144,4.187,0.000,3.281,0.000,12.622,0.000,0.000,34.634
14267,4.187,0.000,3.281,0.000,12.622,0.000,0.000,34.636
14390,4.186,0.000,3.281,0.000,12.622,0.000,0.000,34.646
14513,4.186,0.000,3.281,0.000,12.622,0.000,0.000,34.619
14636,4.185,0.000,3.281,0.000,12.622,0.000,0.000,34.620
14759,4.185,0.000,3.281,0.000,12.622,0.000,0.000,34.634
14882,4.185,0.000,3.281,0.000,12.622,0.000,0.000,34.560
15005,4.185,0.000,3.281,0.000,12.622,0.000,0.000,34.650
15128,4.184,0.000,3.281,0.000,12.622,0.000,0.000,34.619
15251,4.184,0.000,3.281,0.000,12.622,0.000,0.000,34.628
15374,4.184,0.000,3.281,0.000,12.622,0.000,0.000,34.668
15497,4.183,0.000,3.281,0.000,12.622,0.000,0.000,34.608
15620,4.183,0.000,3.281,0.000,12.622,0.000,0.000,34.593
15743,4.183,0.000,3.281,0.000,12.622,0.000,0.000,34.592
15866,4.183,0.000,3.281,0.000,12.622,0.000,0.000,34.609
15989,4.183,0.000,3.281,0.000,12.622,0.000,0.000,34.602
16112,4.182,0.000,3.281,0.000,12.622,0.000,0.000,34.605
16235,4.182,0.000,3.281,0.000,12.622,0.000,0.000,34.597
16358,4.182,0.000,3.281,0.000,12.622,0.000,0.000,34.642
16481,4.182,0.000,3.281,0.000,12.622,0.000,0.000,34.623
16604,4.182,0.000,3.281,0.000,12.622,0.000,0.000,34.581
16726,3.764,-6.702,3.281,0.082,12.622,0.311,-0.001,35.585
16849,3.685,-6.699,3.281,0.311,12.622,1.163,-0.001,39.043
16972,3.606,-6.698,3.281,0.540,12.622,1.998,-0.001,41.651
17095,3.528,-6.696,3.281,0.769,12.622,2.814,-0.001,43.693
17218,3.454,-6.698,3.281,0.997,12.622,3.613,-0.001,45.419
17341,3.379,-6.696,3.281,1.226,12.622,4.394,-0.001,47.012
17464,3.307,-6.700,3.281,1.455,12.622,5.159,-0.001,48.271
17587,3.241,-6.699,3.281,1.684,12.622,5.908,0.000,49.389
17710,3.182,-6.698,3.281,1.913,12.622,6.643,0.000,50.517
17833,3.125,-6.697,3.281,2.142,12.622,7.365,0.000,51.502
17956,3.063,-6.696,3.281,2.370,12.622,8.073,-0.001,52.637
18079,2.993,-6.696,3.281,2.599,12.622,8.766,-0.001,53.608
18202,2.913,-6.696,3.281,2.828,12.622,9.442,-0.001,54.544
18325,2.810,-6.697,3.281,3.057,12.622,10.097,-0.001,55.783
18448,2.989,0.000,3.281,3.268,12.622,10.669,0.006,57.736
18571,3.125,0.000,3.281,3.268,12.622,10.669,0.000,53.060
18694,3.136,0.000,3.281,3.268,12.622,10.669,0.000,48.688
18817,3.142,0.000,3.281,3.268,12.622,10.669,0.000,45.348
18940,3.147,0.000,3.281,3.268,12.622,10.669,0.000,42.823
19063,3.150,0.000,3.281,3.268,12.622,10.669,0.000,40.850
19186,3.153,0.000,3.281,3.268,12.622,10.669,0.000,39.406
19309,3.155,0.000,3.281,3.268,12.622,10.669,0.000,38.307
19432,3.156,0.000,3.281,3.268,12.622,10.669,0.000,37.498
19555,3.157,0.000,3.281,3.268,12.622,10.669,0.000,36.769
19678,3.159,0.000,3.281,3.268,12.622,10.669,0.000,36.259
19801,3.159,0.000,3.281,3.268,12.622,10.669,0.000,35.870
19924,3.160,0.000,3.281,3.268,12.622,10.669,0.000,35.571
20047,3.161,0.000,3.281,3.268,12.622,10.669,0.000,35.353
20170,3.162,0.000,3.281,3.268,12.622,10.669,0.000,35.184
20293,3.162,0.000,3.281,3.268,12.622,10.669,0.000,35.020
20416,3.163,0.000,3.281,3.268,12.622,10.669,0.000,34.971
20539,3.163,0.000,3.281,3.268,12.622,10.669,0.000,34.856
20662,3.164,0.000,3.281,3.268,12.622,10.669,0.000,34.830
20785,3.164,0.000,3.281,3.268,12.622,10.669,0.000,34.780
20908,3.165,0.000,3.281,3.268,12.622,10.669,0.000,34.740
21031,3.165,0.000,3.281,3.268,12.622,10.669,0.000,34.692
21154,3.166,0.000,3.281,3.268,12.622,10.669,0.000,34.678
21277,3.166,0.000,3.281,3.268,12.622,10.669,0.000,34.670
21400,3.166,0.000,3.281,3.268,12.622,10.669,0.000,34.620
21523,3.167,0.000,3.281,3.268,12.622,10.669,0.000,34.664
21646,3.167,0.000,3.281,3.268,12.622,10.669,0.000,34.611
21769,3.167,0.000,3.281,3.268,12.622,10.669,0.000,34.660
21892,3.168,0.000,3.281,3.268,12.622,10.669,0.000,34.635
22015,3.168,0.000,3.281,3.268,12.622,10.669,0.000,34.607
22039,3.168,0.000,3.281,3.268,12.622,10.669,0.000,34.617