Folder: EE-292X-Battery-Modeling/data/T35/3C (part 2)

File: 3.csv
time_s,voltage_v,current_a,chargecapacity_ah,dischargecapacity_ah,charge_energy_wh,discharge_energy_wh,voltagedot_v_per_s,temp_degc
1,3.332,0.000,0.000,0.000,0.000,0.000,0.000,34.513
99,3.534,1.625,0.018,0.000,0.062,0.000,0.000,34.608
198,3.548,1.625,0.062,0.000,0.220,0.000,0.000,34.914
297,3.561,1.625,0.107,0.000,0.379,0.000,0.000,35.139
396,3.574,1.625,0.152,0.000,0.539,0.000,0.000,35.400
495,3.586,1.625,0.196,0.000,0.699,0.000,0.000,35.475
594,3.599,1.625,0.241,0.000,0.859,0.000,0.000,35.511
693,3.612,1.625,0.286,0.000,1.020,0.000,0.000,35.523
792,3.626,1.625,0.330,0.000,1.182,0.000,0.000,35.565
891,3.639,1.625,0.375,0.000,1.344,0.000,0.000,35.565
990,3.650,1.625,0.420,0.000,1.507,0.000,0.000,35.547
1089,3.660,1.625,0.465,0.000,1.671,0.000,0.000,35.489
1188,3.669,1.625,0.509,0.000,1.835,0.000,0.000,35.507
1287,3.677,1.625,0.554,0.000,1.999,0.000,0.000,35.508
1386,3.686,1.625,0.599,0.000,2.163,0.000,0.000,35.506
1485,3.694,1.625,0.643,0.000,2.328,0.000,0.000,35.502
1584,3.703,1.625,0.688,0.000,2.493,0.000,0.000,35.563
1683,3.712,1.625,0.733,0.000,2.659,0.000,0.000,35.574
1782,3.721,1.625,0.777,0.000,2.825,0.000,0.000,35.631
1881,3.730,1.625,0.822,0.000,2.992,0.000,0.000,35.634
1980,3.739,1.625,0.867,0.000,3.159,0.000,0.000,35.702
2079,3.748,1.625,0.911,0.000,3.326,0.000,0.000,35.733
2178,3.757,1.625,0.956,0.000,3.494,0.000,0.000,35.766
2277,3.765,1.625,1.001,0.000,3.662,0.000,0.000,35.803
2376,3.774,1.625,1.046,0.000,3.830,0.000,0.000,35.855
2475,3.782,1.625,1.090,0.000,3.999,0.000,0.000,35.907
2574,3.790,1.625,1.135,0.000,4.168,0.000,0.000,35.901
2673,3.798,1.625,1.180,0.000,4.338,0.000,0.000,35.889
2772,3.807,1.625,1.224,0.000,4.508,0.000,0.000,35.851
2871,3.816,1.625,1.269,0.000,4.678,0.000,0.000,35.925
2970,3.825,1.625,1.314,0.000,4.849,0.000,0.000,35.921
3069,3.834,1.625,1.358,0.000,5.020,0.000,0.000,35.931
3168,3.844,1.625,1.403,0.000,5.192,0.000,0.000,35.945
3267,3.854,1.625,1.448,0.000,5.364,0.000,0.000,35.948
3366,3.865,1.625,1.493,0.000,5.536,0.000,0.000,35.937
3465,3.876,1.625,1.537,0.000,5.709,0.000,0.000,35.955
3564,3.888,1.625,1.582,0.000,5.883,0.000,0.000,35.963
3663,3.900,1.625,1.627,0.000,6.057,0.000,0.000,35.992
3762,3.912,1.625,1.671,0.000,6.231,0.000,0.000,35.969
3861,3.925,1.625,1.716,0.000,6.406,0.000,0.000,35.920
3960,3.937,1.625,1.761,0.000,6.582,0.000,0.000,35.941
4059,3.950,1.625,1.805,0.000,6.758,0.000,0.000,35.940
4158,3.963,1.625,1.850,0.000,6.935,0.000,0.000,35.916
4257,3.976,1.625,1.895,0.000,7.113,0.000,0.000,35.972
4356,3.988,1.625,1.939,0.000,7.291,0.000,0.000,35.909
4455,4.001,1.625,1.984,0.000,7.469,0.000,0.000,35.891
4554,4.014,1.625,2.029,0.000,7.648,0.000,0.000,35.879
4653,4.026,1.625,2.074,0.000,7.828,0.000,0.000,35.834
4752,4.039,1.625,2.118,0.000,8.008,0.000,0.000,35.831
4851,4.051,1.625,2.163,0.000,8.189,0.000,0.000,35.865
4950,4.064,1.625,2.208,0.000,8.370,0.000,0.000,35.850
5049,4.077,1.625,2.252,0.000,8.552,0.000,0.000,35.867
5148,4.090,1.625,2.297,0.000,8.735,0.000,0.000,35.832
5247,4.104,1.625,2.342,0.000,8.918,0.000,0.000,35.889
5346,4.118,1.625,2.386,0.000,9.101,0.000,0.000,35.902
5445,4.133,1.625,2.431,0.000,9.286,0.000,0.000,35.948
5544,4.149,1.625,2.476,0.000,9.471,0.000,0.000,35.942
5643,4.166,1.625,2.520,0.000,9.657,0.000,0.000,35.992
5742,4.183,1.625,2.565,0.000,9.843,0.000,0.000,36.000
5841,4.200,1.611,2.610,0.000,10.030,0.000,0.000,36.020
5940,4.200,1.440,2.652,0.000,10.206,0.000,0.000,35.971
6039,4.200,1.311,2.689,0.000,10.364,0.000,0.000,35.939
6138,4.200,1.197,2.724,0.000,10.509,0.000,0.000,35.896
6237,4.200,1.100,2.755,0.000,10.641,0.000,0.000,35.780
6336,4.200,1.014,2.784,0.000,10.763,0.000,0.000,35.655
6435,4.200,0.940,2.811,0.000,10.876,0.000,0.000,35.585
6534,4.200,0.875,2.836,0.000,10.981,0.000,0.000,35.484
6633,4.200,0.816,2.859,0.000,11.078,0.000,0.000,35.423
6732,4.200,0.763,2.881,0.000,11.169,0.000,0.000,35.316
6831,4.200,0.713,2.901,0.000,11.255,0.000,0.000,35.284
6930,4.200,0.667,2.920,0.000,11.334,0.000,0.000,35.239
7029,4.200,0.624,2.938,0.000,11.409,0.000,0.000,35.127
7128,4.200,0.583,2.955,0.000,11.478,0.000,0.000,35.101
7227,4.200,0.544,2.970,0.000,11.544,0.000,0.000,35.042
7326,4.200,0.507,2.985,0.000,11.604,0.000,0.000,35.041
7425,4.200,0.471,2.998,0.000,11.661,0.000,0.000,34.950
7524,4.200,0.437,3.010,0.000,11.713,0.000,0.000,34.921
7623,4.200,0.404,3.022,0.000,11.762,0.000,0.000,34.896
7722,4.200,0.373,3.033,0.000,11.806,0.000,0.000,34.859
7821,4.200,0.344,3.043,0.000,11.848,0.000,0.000,34.836
7920,4.200,0.317,3.052,0.000,11.886,0.000,0.000,34.826
8019,4.200,0.292,3.060,0.000,11.921,0.000,0.000,34.786
8118,4.200,0.267,3.068,0.000,11.953,0.000,0.000,34.739
8217,4.200,0.245,3.075,0.000,11.983,0.000,0.000,34.729
8316,4.200,0.224,3.081,0.000,12.010,0.000,0.000,34.718
8415,4.200,0.205,3.087,0.000,12.035,0.000,0.000,34.739
8514,4.200,0.188,3.092,0.000,12.057,0.000,0.000,34.683
8613,4.200,0.172,3.097,0.000,12.078,0.000,0.000,34.678
8712,4.200,0.157,3.102,0.000,12.097,0.000,0.000,34.665
8811,4.200,0.143,3.106,0.000,12.114,0.000,0.000,34.670
8910,4.200,0.131,3.110,0.000,12.130,0.000,0.000,34.686
9009,4.200,0.120,3.113,0.000,12.145,0.000,0.000,34.644
9108,4.200,0.109,3.116,0.000,12.158,0.000,0.000,34.613
9207,4.200,0.101,3.119,0.000,12.170,0.000,0.000,34.640
9306,4.200,0.092,3.122,0.000,12.181,0.000,0.000,34.652
9405,4.200,0.085,3.124,0.000,12.191,0.000,0.000,34.593
9504,4.200,0.078,3.127,0.000,12.201,0.000,0.000,34.639
9603,4.200,0.072,3.129,0.000,12.209,0.000,0.000,34.656
9702,4.200,0.067,3.131,0.000,12.217,0.000,0.000,34.643
9800,4.192,0.000,3.131,0.000,12.219,0.000,0.000,34.651
9899,4.191,0.000,3.131,0.000,12.219,0.000,0.000,34.637
9998,4.190,0.000,3.131,0.000,12.219,0.000,0.000,34.651
10097,4.189,0.000,3.131,0.000,12.219,0.000,0.000,34.646
10196,4.189,0.000,3.131,0.000,12.219,0.000,0.000,34.615
10295,4.188,0.000,3.131,0.000,12.219,0.000,0.000,34.599
10394,4.187,0.000,3.131,0.000,12.219,0.000,0.000,34.608
10493,4.187,0.000,3.131,0.000,12.219,0.000,0.000,34.622
10592,4.187,0.000,3.131,0.000,12.219,0.000,0.000,34.610
10691,4.186,0.000,3.131,0.000,12.219,0.000,0.000,34.607
10790,4.186,0.000,3.131,0.000,12.219,0.000,0.000,34.639
10889,4.185,0.000,3.131,0.000,12.219,0.000,0.000,34.616
10988,4.185,0.000,3.131,0.000,12.219,0.000,0.000,34.612
11087,4.185,0.000,3.131,0.000,12.219,0.000,0.000,34.628
11186,4.185,0.000,3.131,0.000,12.219,0.000,0.000,34.623
11285,4.184,0.000,3.131,0.000,12.219,0.000,0.000,34.594
11384,4.184,0.000,3.131,0.000,12.219,0.000,0.000,34.611
11483,4.184,0.000,3.131,0.000,12.219,0.000,0.000,34.614
11582,4.184,0.000,3.131,0.000,12.219,0.000,0.000,34.610
11681,4.183,0.000,3.131,0.000,12.219,0.000,0.000,34.648
11780,4.183,0.000,3.131,0.000,12.219,0.000,0.000,34.617
11879,4.183,0.000,3.131,0.000,12.219,0.000,0.000,34.614
11978,4.183,0.000,3.131,0.000,12.219,0.000,0.000,34.631
12077,4.183,0.000,3.131,0.000,12.219,0.000,0.000,34.623
12176,4.182,0.000,3.131,0.000,12.219,0.000,0.000,34.608
12275,4.182,0.000,3.131,0.000,12.219,0.000,0.000,34.607
12374,4.182,0.000,3.131,0.000,12.219,0.000,0.000,34.593
12473,4.182,0.000,3.131,0.000,12.219,0.000,0.000,34.634
12572,4.182,0.000,3.131,0.000,12.219,0.000,0.000,34.650
12671,4.182,0.000,3.131,0.000,12.219,0.000,0.000,34.573
12770,4.181,0.000,3.131,0.000,12.219,0.000,0.000,34.633
12869,4.181,0.000,3.131,0.000,12.219,0.000,0.000,34.619
12968,4.181,0.000,3.131,0.000,12.219,0.000,0.000,34.640
13067,4.181,0.000,3.131,0.000,12.219,0.000,0.000,34.617
13166,4.181,0.000,3.131,0.000,12.219,0.000,0.000,34.589
13265,4.181,0.000,3.131,0.000,12.219,0.000,0.000,34.597
13363,3.398,-10.048,3.131,0.131,12.219,0.449,-0.001,37.233
13462,3.313,-10.047,3.131,0.407,12.219,1.376,-0.001,43.051
13561,3.210,-10.047,3.131,0.684,12.219,2.278,-0.001,46.852
13660,3.108,-10.048,3.131,0.960,12.219,3.151,-0.001,50.123
13759,3.011,-10.048,3.131,1.236,12.219,3.996,-0.001,52.851
13858,2.920,-10.049,3.131,1.513,12.219,4.814,-0.001,55.129
13957,2.836,-10.049,3.131,1.789,12.219,5.610,-0.001,57.096
14056,2.749,-10.050,3.131,2.065,12.219,6.381,0.000,59.135
14155,2.658,-10.051,3.131,2.342,12.219,7.129,-0.001,61.089
14254,2.568,-10.051,3.131,2.618,12.219,7.851,-0.001,62.908
14353,3.354,0.000,3.131,2.795,12.219,8.297,0.001,62.772
14452,3.381,0.000,3.131,2.795,12.219,8.297,0.000,55.983
14551,3.389,0.000,3.131,2.795,12.219,8.297,0.000,50.691
14650,3.400,0.000,3.131,2.795,12.219,8.297,0.000,46.643
14749,3.407,0.000,3.131,2.795,12.219,8.297,0.000,43.768
14848,3.411,0.000,3.131,2.795,12.219,8.297,0.000,41.593
14947,3.414,0.000,3.131,2.795,12.219,8.297,0.000,39.984
15046,3.415,0.000,3.131,2.795,12.219,8.297,0.000,38.752
15145,3.416,0.000,3.131,2.795,12.219,8.297,0.000,37.794
15244,3.417,0.000,3.131,2.795,12.219,8.297,0.000,37.124
15343,3.418,0.000,3.131,2.795,12.219,8.297,0.000,36.544
15442,3.418,0.000,3.131,2.795,12.219,8.297,0.000,36.186
15541,3.418,0.000,3.131,2.795,12.219,8.297,0.000,35.782
15640,3.419,0.000,3.131,2.795,12.219,8.297,0.000,35.564
15739,3.419,0.000,3.131,2.795,12.219,8.297,0.000,35.333
15838,3.419,0.000,3.131,2.795,12.219,8.297,0.000,35.250
15937,3.419,0.000,3.131,2.795,12.219,8.297,0.000,35.117
16036,3.419,0.000,3.131,2.795,12.219,8.297,0.000,35.030
16135,3.419,0.000,3.131,2.795,12.219,8.297,0.000,34.931
16234,3.419,0.000,3.131,2.795,12.219,8.297,0.000,34.880
16333,3.419,0.000,3.131,2.795,12.219,8.297,0.000,34.796
16432,3.419,0.000,3.131,2.795,12.219,8.297,0.000,34.765
16531,3.420,0.000,3.131,2.795,12.219,8.297,0.000,34.786
16630,3.420,0.000,3.131,2.795,12.219,8.297,0.000,34.744
16729,3.420,0.000,3.131,2.795,12.219,8.297,0.000,34.744
16828,3.420,0.000,3.131,2.795,12.219,8.297,0.000,34.711
16927,3.420,0.000,3.131,2.795,12.219,8.297,0.000,34.719
17026,3.420,0.000,3.131,2.795,12.219,8.297,0.000,34.670
17125,3.420,0.000,3.131,2.795,12.219,8.297,0.000,34.664
17224,3.420,0.000,3.131,2.795,12.219,8.297,0.000,34.674
17323,3.420,0.000,3.131,2.795,12.219,8.297,0.000,34.685
17422,3.420,0.000,3.131,2.795,12.219,8.297,0.000,34.687
17521,3.420,0.000,3.131,2.795,12.219,8.297,0.000,34.652
17620,3.420,0.000,3.131,2.795,12.219,8.297,0.000,34.626
17719,3.420,0.000,3.131,2.795,12.219,8.297,0.000,34.628
17818,3.420,0.000,3.131,2.795,12.219,8.297,0.000,34.656
17917,3.420,0.000,3.131,2.795,12.219,8.297,0.000,34.661
17918,3.420,0.000,3.131,2.795,12.219,8.297,0.000,34.661

File: 4.csv
time_s,voltage_v,current_a,chargecapacity_ah,dischargecapacity_ah,charge_energy_wh,discharge_energy_wh,voltagedot_v_per_s,temp_degc
1,4.076,0.000,0.000,0.000,0.000,0.000,0.000,34.618
60,4.294,1.624,0.000,0.000,0.000,0.000,-0.003,34.647
121,4.200,0.798,0.014,0.000,0.060,0.000,0.000,34.680
182,4.200,0.763,0.027,0.000,0.115,0.000,0.000,34.753
243,4.200,0.736,0.040,0.000,0.168,0.000,0.000,34.794
304,4.200,0.709,0.052,0.000,0.220,0.000,0.000,34.834
365,4.200,0.684,0.064,0.000,0.269,0.000,0.000,34.797
426,4.200,0.663,0.076,0.000,0.317,0.000,0.000,34.832
487,4.200,0.640,0.087,0.000,0.364,0.000,0.000,34.874
548,4.200,0.617,0.097,0.000,0.408,0.000,0.000,34.847
609,4.200,0.595,0.107,0.000,0.451,0.000,0.000,34.832
670,4.200,0.574,0.117,0.000,0.493,0.000,0.000,34.825
731,4.200,0.553,0.127,0.000,0.533,0.000,0.000,34.853
792,4.200,0.532,0.136,0.000,0.572,0.000,0.000,34.848
853,4.200,0.509,0.145,0.000,0.609,0.000,0.000,34.852
914,4.200,0.487,0.153,0.000,0.644,0.000,0.000,34.872
975,4.200,0.466,0.161,0.000,0.678,0.000,0.000,34.855
1036,4.200,0.446,0.169,0.000,0.710,0.000,0.000,34.824
1097,4.200,0.425,0.177,0.000,0.741,0.000,0.000,34.843
1158,4.200,0.404,0.184,0.000,0.771,0.000,0.000,34.818
1219,4.200,0.384,0.190,0.000,0.799,0.000,0.000,34.807
1280,4.200,0.365,0.197,0.000,0.826,0.000,0.000,34.843
1341,4.200,0.346,0.203,0.000,0.851,0.000,0.000,34.797
1402,4.200,0.327,0.208,0.000,0.875,0.000,0.000,34.830
1463,4.200,0.309,0.214,0.000,0.897,0.000,0.000,34.800
1524,4.200,0.291,0.219,0.000,0.919,0.000,0.000,34.780
1585,4.200,0.274,0.224,0.000,0.939,0.000,0.000,34.790
1646,4.200,0.258,0.228,0.000,0.958,0.000,0.000,34.810
1707,4.200,0.243,0.232,0.000,0.976,0.000,0.000,34.765
1768,4.200,0.228,0.236,0.000,0.992,0.000,0.000,34.776
1829,4.200,0.214,0.240,0.000,1.008,0.000,0.000,34.733
1890,4.200,0.202,0.244,0.000,1.023,0.000,0.000,34.791
1951,4.200,0.189,0.247,0.000,1.037,0.000,0.000,34.754
2012,4.200,0.178,0.250,0.000,1.050,0.000,0.000,34.769
2073,4.200,0.167,0.253,0.000,1.062,0.000,0.000,34.767
2134,4.200,0.157,0.256,0.000,1.074,0.000,0.000,34.726
2195,4.200,0.148,0.258,0.000,1.085,0.000,0.000,34.762
2256,4.200,0.140,0.261,0.000,1.095,0.000,0.000,34.716
2317,4.200,0.132,0.263,0.000,1.104,0.000,0.000,34.760
2378,4.200,0.124,0.265,0.000,1.114,0.000,0.000,34.702
2439,4.200,0.117,0.267,0.000,1.122,0.000,0.000,34.724
2500,4.200,0.111,0.269,0.000,1.130,0.000,0.000,34.707
2561,4.200,0.105,0.271,0.000,1.138,0.000,0.000,34.721
2622,4.200,0.099,0.273,0.000,1.145,0.000,0.000,34.693
2683,4.200,0.093,0.274,0.000,1.152,0.000,0.000,34.691
2744,4.200,0.088,0.276,0.000,1.158,0.000,0.000,34.732
2805,4.200,0.084,0.277,0.000,1.164,0.000,0.000,34.727
2866,4.200,0.079,0.279,0.000,1.170,0.000,0.000,34.717
2927,4.200,0.075,0.280,0.000,1.176,0.000,0.000,34.684
2988,4.200,0.071,0.281,0.000,1.181,0.000,0.000,34.703
3049,4.200,0.068,0.282,0.000,1.186,0.000,0.000,34.712
3109,4.190,0.000,0.283,0.000,1.190,0.000,0.000,34.691
3170,4.189,0.000,0.283,0.000,1.190,0.000,0.000,34.691
3231,4.188,0.000,0.283,0.000,1.190,0.000,0.000,34.668
3292,4.187,0.000,0.283,0.000,1.190,0.000,0.000,34.650
3353,4.187,0.000,0.283,0.000,1.190,0.000,0.000,34.720
3414,4.187,0.000,0.283,0.000,1.190,0.000,0.000,34.695
3475,4.186,0.000,0.283,0.000,1.190,0.000,0.000,34.689
3536,4.186,0.000,0.283,0.000,1.190,0.000,0.000,34.726
3597,4.186,0.000,0.283,0.000,1.190,0.000,0.000,34.717
3658,4.186,0.000,0.283,0.000,1.190,0.000,0.000,34.641
3719,4.186,0.000,0.283,0.000,1.190,0.000,0.000,34.659
3780,4.185,0.000,0.283,0.000,1.190,0.000,0.000,34.672
3841,4.185,0.000,0.283,0.000,1.190,0.000,0.000,34.657
3902,4.185,0.000,0.283,0.000,1.190,0.000,0.000,34.702
3963,4.185,0.000,0.283,0.000,1.190,0.000,0.000,34.686
4024,4.185,0.000,0.283,0.000,1.190,0.000,0.000,34.712
4085,4.185,0.000,0.283,0.000,1.190,0.000,0.000,34.707
4146,4.185,0.000,0.283,0.000,1.190,0.000,0.000,34.664
4207,4.184,0.000,0.283,0.000,1.190,0.000,0.000,34.677
4268,4.184,0.000,0.283,0.000,1.190,0.000,0.000,34.705
4329,4.184,0.000,0.283,0.000,1.190,0.000,0.000,34.645
4390,4.184,0.000,0.283,0.000,1.190,0.000,0.000,34.636
4451,4.184,0.000,0.283,0.000,1.190,0.000,0.000,34.673
4512,4.184,0.000,0.283,0.000,1.190,0.000,0.000,34.675
4573,4.184,0.000,0.283,0.000,1.190,0.000,0.000,34.653
4634,4.184,0.000,0.283,0.000,1.190,0.000,0.000,34.680
4695,4.183,0.000,0.283,0.000,1.190,0.000,0.000,34.682
4756,4.183,0.000,0.283,0.000,1.190,0.000,0.000,34.657
4817,4.183,0.000,0.283,0.000,1.190,0.000,0.000,34.664
4878,4.183,0.000,0.283,0.000,1.190,0.000,0.000,34.685
4939,4.183,0.000,0.283,0.000,1.190,0.000,0.000,34.712
5000,4.183,0.000,0.283,0.000,1.190,0.000,0.000,34.649
5061,4.183,0.000,0.283,0.000,1.190,0.000,0.000,34.672
5122,4.183,0.000,0.283,0.000,1.190,0.000,0.000,34.684
5183,4.183,0.000,0.283,0.000,1.190,0.000,0.000,34.624
5244,4.183,0.000,0.283,0.000,1.190,0.000,0.000,34.643
5305,4.183,0.000,0.283,0.000,1.190,0.000,0.000,34.638
5366,4.182,0.000,0.283,0.000,1.190,0.000,0.000,34.643
5427,4.182,0.000,0.283,0.000,1.190,0.000,0.000,34.681
5488,4.182,0.000,0.283,0.000,1.190,0.000,0.000,34.611
5549,4.182,0.000,0.283,0.000,1.190,0.000,0.000,34.623
5610,4.182,0.000,0.283,0.000,1.190,0.000,0.000,34.646
5671,4.182,0.000,0.283,0.000,1.190,0.000,0.000,34.621
5732,4.182,0.000,0.283,0.000,1.190,0.000,0.000,34.645
5793,4.182,0.000,0.283,0.000,1.190,0.000,0.000,34.626
5854,4.182,0.000,0.283,0.000,1.190,0.000,0.000,34.604
5915,4.182,0.000,0.283,0.000,1.190,0.000,0.000,34.692
5976,4.182,0.000,0.283,0.000,1.190,0.000,0.000,34.572
6037,4.182,0.000,0.283,0.000,1.190,0.000,0.000,34.615
6098,4.182,0.000,0.283,0.000,1.190,0.000,0.000,34.622
6159,4.182,0.000,0.283,0.000,1.190,0.000,0.000,34.669
6220,4.182,0.000,0.283,0.000,1.190,0.000,0.000,34.619
6281,4.181,0.000,0.283,0.000,1.190,0.000,0.000,34.611
6342,4.182,0.000,0.283,0.000,1.190,0.000,0.000,34.589
6403,4.181,0.000,0.283,0.000,1.190,0.000,0.000,34.576
6464,4.181,0.000,0.283,0.000,1.190,0.000,0.000,34.606
6525,4.181,0.000,0.283,0.000,1.190,0.000,0.000,34.552
6586,4.181,0.000,0.283,0.000,1.190,0.000,0.000,34.624
6647,4.181,0.000,0.283,0.000,1.190,0.000,0.000,34.627
6707,3.359,-10.050,0.283,0.028,1.190,0.094,-0.004,34.874
6768,3.256,-10.049,0.283,0.198,1.190,0.656,-0.001,38.423
6829,3.177,-10.049,0.283,0.368,1.190,1.204,-0.001,41.866
6890,3.099,-10.049,0.283,0.539,1.190,1.738,-0.002,44.624
6951,3.023,-10.049,0.283,0.709,1.190,2.259,0.000,47.072
7012,2.959,-10.050,0.283,0.879,1.190,2.768,-0.001,49.074
7073,2.896,-10.050,0.283,1.050,1.190,3.267,-0.001,50.962
7134,2.837,-10.050,0.283,1.220,1.190,3.755,-0.001,52.632
7195,2.785,-10.051,0.283,1.390,1.190,4.233,-0.001,54.364
7256,2.738,-10.050,0.283,1.560,1.190,4.704,-0.001,55.731
7317,2.691,-10.051,0.283,1.731,1.190,5.166,-0.001,57.159
7378,2.642,-10.051,0.283,1.901,1.190,5.620,-0.001,58.313
7439,2.593,-10.052,0.283,2.071,1.190,6.066,0.000,59.379
7500,2.543,-10.052,0.283,2.242,1.190,6.503,-0.001,60.795
7561,3.389,0.000,0.283,2.377,1.190,6.844,0.005,61.574
7622,3.452,0.000,0.283,2.377,1.190,6.844,0.000,58.309
7683,3.469,0.000,0.283,2.377,1.190,6.844,0.000,54.775
7744,3.491,0.000,0.283,2.377,1.190,6.844,0.000,51.618
7805,3.505,0.000,0.283,2.377,1.190,6.844,0.000,48.992
7866,3.513,0.000,0.283,2.377,1.190,6.844,0.000,46.711
7927,3.519,0.000,0.283,2.377,1.190,6.844,0.000,44.777
7988,3.523,0.000,0.283,2.377,1.190,6.844,0.000,43.193
8049,3.527,0.000,0.283,2.377,1.190,6.844,0.000,41.957
8110,3.529,0.000,0.283,2.377,1.190,6.844,0.000,40.828
8171,3.531,0.000,0.283,2.377,1.190,6.844,0.000,39.919
8232,3.532,0.000,0.283,2.377,1.190,6.844,0.000,39.142
8293,3.533,0.000,0.283,2.377,1.190,6.844,0.000,38.518
8354,3.534,0.000,0.283,2.377,1.190,6.844,0.000,37.953
8415,3.535,0.000,0.283,2.377,1.190,6.844,0.000,37.485
8476,3.535,0.000,0.283,2.377,1.190,6.844,0.000,37.114
8537,3.536,0.000,0.283,2.377,1.190,6.844,0.000,36.776
8598,3.536,0.000,0.283,2.377,1.190,6.844,0.000,36.489
8659,3.537,0.000,0.283,2.377,1.190,6.844,0.000,36.274
8720,3.537,0.000,0.283,2.377,1.190,6.844,0.000,36.029
8781,3.538,0.000,0.283,2.377,1.190,6.844,0.000,35.817
8842,3.538,0.000,0.283,2.377,1.190,6.844,0.000,35.701
8903,3.538,0.000,0.283,2.377,1.190,6.844,0.000,35.534
8964,3.538,0.000,0.283,2.377,1.190,6.844,0.000,35.452
9025,3.539,0.000,0.283,2.377,1.190,6.844,0.000,35.354
9086,3.539,0.000,0.283,2.377,1.190,6.844,0.000,35.232
9147,3.539,0.000,0.283,2.377,1.190,6.844,0.000,35.150
9208,3.539,0.000,0.283,2.377,1.190,6.844,0.000,35.068
9269,3.539,0.000,0.283,2.377,1.190,6.844,0.000,35.059
9330,3.539,0.000,0.283,2.377,1.190,6.844,0.000,34.992
9391,3.539,0.000,0.283,2.377,1.190,6.844,0.000,34.955
9452,3.540,0.000,0.283,2.377,1.190,6.844,0.000,34.930
9513,3.540,0.000,0.283,2.377,1.190,6.844,0.000,34.908
9574,3.540,0.000,0.283,2.377,1.190,6.844,0.000,34.846
9635,3.540,0.000,0.283,2.377,1.190,6.844,0.000,34.796
9696,3.540,0.000,0.283,2.377,1.190,6.844,0.000,34.794
9757,3.540,0.000,0.283,2.377,1.190,6.844,0.000,34.811
9818,3.540,0.000,0.283,2.377,1.190,6.844,0.000,34.827
9879,3.540,0.000,0.283,2.377,1.190,6.844,0.000,34.791
9940,3.540,0.000,0.283,2.377,1.190,6.844,0.000,34.781
10001,3.540,0.000,0.283,2.377,1.190,6.844,0.000,34.730
10062,3.541,0.000,0.283,2.377,1.190,6.844,0.000,34.676
10123,3.541,0.000,0.283,2.377,1.190,6.844,0.000,34.733
10184,3.541,0.000,0.283,2.377,1.190,6.844,0.000,34.745
10245,3.541,0.000,0.283,2.377,1.190,6.844,0.000,34.762
10306,3.541,0.000,0.283,2.377,1.190,6.844,0.000,34.705
10367,3.541,0.000,0.283,2.377,1.190,6.844,0.000,34.730
10428,3.541,0.000,0.283,2.377,1.190,6.844,0.000,34.750
10489,3.541,0.000,0.283,2.377,1.190,6.844,0.000,34.685
10550,3.541,0.000,0.283,2.377,1.190,6.844,0.000,34.680
10611,3.541,0.000,0.283,2.377,1.190,6.844,0.000,34.721
10672,3.541,0.000,0.283,2.377,1.190,6.844,0.000,34.674
10733,3.541,0.000,0.283,2.377,1.190,6.844,0.000,34.684
10794,3.541,0.000,0.283,2.377,1.190,6.844,0.000,34.665
10855,3.541,0.000,0.283,2.377,1.190,6.844,0.000,34.673
10916,3.541,0.000,0.283,2.377,1.190,6.844,0.000,34.647
10977,3.542,0.000,0.283,2.377,1.190,6.844,0.000,34.680
11038,3.541,0.000,0.283,2.377,1.190,6.844,0.000,34.673
11099,3.542,0.000,0.283,2.377,1.190,6.844,0.000,34.622
11149,3.542,0.000,0.283,2.377,1.190,6.844,0.000,34.682