Folder: EE-292X-Battery-Modeling/data/T35/5C

Note: README.md
# ee292x
Machine Learning project for Autumn 2019 EE292X at Stanford

File: 1.csv
time_s,voltage_v,current_a,chargecapacity_ah,dischargecapacity_ah,charge_energy_wh,discharge_energy_wh,voltagedot_v_per_s,temp_degc
1,3.354,0.000,0.000,0.000,0.000,0.000,0.000,34.021
90,3.505,1.625,0.014,0.000,0.047,0.001,0.000,33.983
180,3.527,1.625,0.054,0.000,0.190,0.001,0.000,34.113
270,3.545,1.625,0.095,0.000,0.334,0.001,0.000,34.522
360,3.561,1.625,0.135,0.000,0.478,0.001,0.000,34.761
450,3.576,1.625,0.176,0.000,0.623,0.001,0.000,35.002
540,3.590,1.625,0.217,0.000,0.769,0.001,0.000,35.055
630,3.605,1.625,0.257,0.000,0.915,0.001,0.000,35.135
720,3.617,1.625,0.298,0.000,1.062,0.001,0.000,35.180
810,3.628,1.625,0.339,0.000,1.209,0.001,0.000,35.217
900,3.637,1.625,0.379,0.000,1.356,0.001,0.000,35.239
990,3.645,1.625,0.420,0.000,1.504,0.001,0.000,35.329
1080,3.653,1.625,0.460,0.000,1.653,0.001,0.000,35.340
1170,3.661,1.625,0.501,0.000,1.801,0.001,0.000,35.341
1260,3.670,1.625,0.542,0.000,1.950,0.001,0.000,35.405
1350,3.678,1.625,0.582,0.000,2.099,0.001,0.000,35.440
1440,3.686,1.625,0.623,0.000,2.249,0.001,0.000,35.515
1530,3.695,1.625,0.664,0.000,2.399,0.001,0.000,35.542
1620,3.703,1.625,0.704,0.000,2.549,0.001,0.000,35.568
1710,3.712,1.625,0.745,0.000,2.700,0.001,0.000,35.572
1800,3.720,1.625,0.785,0.000,2.851,0.001,0.000,35.611
1890,3.728,1.625,0.826,0.000,3.002,0.001,0.000,35.665
1980,3.736,1.625,0.867,0.000,3.154,0.001,0.000,35.729
2070,3.744,1.625,0.907,0.000,3.306,0.001,0.000,35.742
2160,3.751,1.625,0.948,0.000,3.458,0.001,0.000,35.739
2250,3.759,1.625,0.989,0.000,3.611,0.001,0.000,35.776
2340,3.766,1.625,1.029,0.000,3.763,0.001,0.000,35.744
2430,3.774,1.625,1.070,0.000,3.917,0.001,0.000,35.798
2520,3.782,1.625,1.111,0.000,4.070,0.001,0.000,35.818
2610,3.790,1.625,1.151,0.000,4.224,0.001,0.000,35.800
2700,3.799,1.625,1.192,0.000,4.378,0.001,0.000,35.797
2790,3.808,1.625,1.232,0.000,4.533,0.001,0.000,35.825
2880,3.817,1.625,1.273,0.000,4.688,0.001,0.000,35.833
2970,3.827,1.625,1.314,0.000,4.843,0.001,0.000,35.818
3060,3.837,1.625,1.354,0.000,4.998,0.001,0.000,35.868
3150,3.847,1.625,1.395,0.000,5.155,0.001,0.000,35.826
3240,3.858,1.625,1.436,0.000,5.311,0.001,0.000,35.871
3330,3.869,1.625,1.476,0.000,5.468,0.001,0.000,35.870
3420,3.880,1.625,1.517,0.000,5.625,0.001,0.000,35.789
3510,3.891,1.625,1.557,0.000,5.783,0.001,0.000,35.860
3600,3.903,1.625,1.598,0.000,5.942,0.001,0.000,35.842
3690,3.914,1.625,1.639,0.000,6.100,0.001,0.000,35.848
3780,3.926,1.625,1.679,0.000,6.260,0.001,0.000,35.816
3870,3.938,1.625,1.720,0.000,6.419,0.001,0.000,35.807
3960,3.949,1.625,1.761,0.000,6.580,0.001,0.000,35.785
4050,3.961,1.625,1.801,0.000,6.740,0.001,0.000,35.791
4140,3.973,1.625,1.842,0.000,6.902,0.001,0.000,35.788
4230,3.984,1.625,1.882,0.000,7.063,0.001,0.000,35.822
4320,3.996,1.625,1.923,0.000,7.225,0.001,0.000,35.765
4410,4.007,1.625,1.964,0.000,7.388,0.001,0.000,35.784
4500,4.018,1.625,2.004,0.000,7.551,0.001,0.000,35.758
4590,4.030,1.625,2.045,0.000,7.714,0.001,0.000,35.744
4680,4.041,1.625,2.086,0.000,7.878,0.001,0.000,35.754
4770,4.053,1.625,2.126,0.000,8.043,0.001,0.000,35.784
4860,4.065,1.625,2.167,0.000,8.208,0.001,0.000,35.807
4950,4.078,1.625,2.207,0.000,8.373,0.001,0.000,35.825
5040,4.091,1.625,2.248,0.000,8.539,0.001,0.000,35.817
5130,4.105,1.625,2.289,0.000,8.705,0.001,0.000,35.802
5220,4.119,1.625,2.329,0.000,8.872,0.001,0.000,35.846
5310,4.135,1.625,2.370,0.000,9.040,0.001,0.000,35.813
5400,4.151,1.625,2.411,0.000,9.208,0.001,0.000,35.875
5490,4.166,1.625,2.451,0.000,9.377,0.001,0.000,35.874
5580,4.183,1.625,2.492,0.000,9.547,0.001,0.000,35.909
5670,4.199,1.625,2.532,0.000,9.717,0.001,0.000,35.940
5760,4.200,1.442,2.571,0.000,9.877,0.001,0.000,35.917
5850,4.200,1.309,2.605,0.000,10.021,0.001,0.000,35.907
5940,4.200,1.199,2.636,0.000,10.153,0.001,0.000,35.829
6030,4.200,1.104,2.665,0.000,10.274,0.001,0.000,35.735
6120,4.200,1.024,2.692,0.000,10.385,0.001,0.000,35.603
6210,4.200,0.951,2.716,0.000,10.489,0.001,0.000,35.581
6300,4.200,0.885,2.739,0.000,10.585,0.001,0.000,35.451
6390,4.200,0.825,2.761,0.000,10.675,0.001,0.000,35.362
6480,4.200,0.770,2.780,0.000,10.759,0.001,0.000,35.320
6570,4.200,0.717,2.799,0.000,10.837,0.001,0.000,35.268
6660,4.200,0.668,2.816,0.000,10.909,0.001,0.000,35.236
6750,4.200,0.620,2.832,0.000,10.977,0.001,0.000,35.196
6840,4.200,0.575,2.847,0.000,11.040,0.001,0.000,35.133
6930,4.200,0.532,2.861,0.000,11.098,0.001,0.000,35.058
7020,4.200,0.491,2.874,0.000,11.152,0.001,0.000,35.042
7110,4.200,0.453,2.886,0.000,11.201,0.001,0.000,34.990
7200,4.200,0.416,2.897,0.000,11.247,0.001,0.000,35.003
7290,4.200,0.382,2.907,0.000,11.289,0.001,0.000,34.914
7380,4.200,0.350,2.916,0.000,11.327,0.001,0.000,34.847
7470,4.200,0.320,2.924,0.000,11.362,0.001,0.000,34.826
7560,4.200,0.293,2.932,0.000,11.394,0.001,0.000,34.857
7650,4.200,0.267,2.939,0.000,11.424,0.001,0.000,34.820
7740,4.200,0.243,2.945,0.000,11.450,0.001,0.000,34.784
7830,4.200,0.222,2.951,0.000,11.475,0.001,0.000,34.774
7920,4.200,0.202,2.956,0.000,11.497,0.001,0.000,34.773
8010,4.200,0.184,2.961,0.000,11.517,0.001,0.000,34.716
8100,4.200,0.168,2.965,0.000,11.536,0.001,0.000,34.738
8190,4.200,0.153,2.969,0.000,11.552,0.001,0.000,34.737
8280,4.200,0.139,2.973,0.000,11.568,0.001,0.000,34.683
8370,4.200,0.128,2.976,0.000,11.582,0.001,0.000,34.736
8460,4.200,0.116,2.979,0.000,11.595,0.001,0.000,34.696
8550,4.200,0.107,2.982,0.000,11.606,0.001,0.000,34.729
8640,4.200,0.098,2.985,0.000,11.617,0.001,0.000,34.708
8730,4.200,0.090,2.987,0.000,11.627,0.001,0.000,34.714
8820,4.200,0.083,2.989,0.000,11.636,0.001,0.000,34.652
8910,4.200,0.077,2.991,0.000,11.644,0.001,0.000,34.682
9000,4.200,0.070,2.993,0.000,11.652,0.001,0.000,34.701
9089,4.196,0.000,2.995,0.000,11.658,0.001,0.000,34.689
9179,4.193,0.000,2.995,0.000,11.658,0.001,0.000,34.690
9269,4.192,0.000,2.995,0.000,11.658,0.001,0.000,34.682
9359,4.191,0.000,2.995,0.000,11.658,0.001,0.000,34.664
9449,4.191,0.000,2.995,0.000,11.658,0.001,0.000,34.700
9539,4.190,0.000,2.995,0.000,11.658,0.001,0.000,34.675
9629,4.189,0.000,2.995,0.000,11.658,0.001,0.000,34.708
9719,4.189,0.000,2.995,0.000,11.658,0.001,0.000,34.626
9809,4.188,0.000,2.995,0.000,11.658,0.001,0.000,34.637
9899,4.188,0.000,2.995,0.000,11.658,0.001,0.000,34.648
9989,4.187,0.000,2.995,0.000,11.658,0.001,0.000,34.630
10079,4.187,0.000,2.995,0.000,11.658,0.001,0.000,34.654
10169,4.187,0.000,2.995,0.000,11.658,0.001,0.000,34.628
10259,4.186,0.000,2.995,0.000,11.658,0.001,0.000,34.640
10349,4.186,0.000,2.995,0.000,11.658,0.001,0.000,34.659
10439,4.186,0.000,2.995,0.000,11.658,0.001,0.000,34.613
10529,4.186,0.000,2.995,0.000,11.658,0.001,0.000,34.632
10619,4.185,0.000,2.995,0.000,11.658,0.001,0.000,34.649
10709,4.185,0.000,2.995,0.000,11.658,0.001,0.000,34.631
10799,4.185,0.000,2.995,0.000,11.658,0.001,0.000,34.693
10889,4.185,0.000,2.995,0.000,11.658,0.001,0.000,34.638
10979,4.184,0.000,2.995,0.000,11.658,0.001,0.000,34.656
11069,4.184,0.000,2.995,0.000,11.658,0.001,0.000,34.643
11159,4.184,0.000,2.995,0.000,11.658,0.001,0.000,34.607
11249,4.184,0.000,2.995,0.000,11.658,0.001,0.000,34.625
11339,4.184,0.000,2.995,0.000,11.658,0.001,0.000,34.645
11429,4.184,0.000,2.995,0.000,11.658,0.001,0.000,34.656
11519,4.183,0.000,2.995,0.000,11.658,0.001,0.000,34.644
11609,4.183,0.000,2.995,0.000,11.658,0.001,0.000,34.660
11699,4.183,0.000,2.995,0.000,11.658,0.001,0.000,34.696
11789,4.183,0.000,2.995,0.000,11.658,0.001,0.000,34.643
11879,4.183,0.000,2.995,0.000,11.658,0.001,0.000,34.662
11969,4.183,0.000,2.995,0.000,11.658,0.001,0.000,34.673
12059,4.182,0.000,2.995,0.000,11.658,0.001,0.000,34.662
12149,4.182,0.000,2.995,0.000,11.658,0.001,0.000,34.644
12239,4.182,0.000,2.995,0.000,11.658,0.001,0.000,34.620
12329,4.182,0.000,2.995,0.000,11.658,0.001,0.000,34.652
12419,4.182,0.000,2.995,0.000,11.658,0.001,0.000,34.651
12509,4.182,0.000,2.995,0.000,11.658,0.001,0.000,34.688
12599,4.182,0.000,2.995,0.000,11.658,0.001,0.000,34.655
12688,3.143,-16.751,2.995,0.037,11.658,0.120,-0.012,35.044
12778,4.077,0.000,2.995,0.179,11.658,0.544,0.001,41.197
12868,4.097,0.000,2.995,0.179,11.658,0.544,0.000,39.308
12958,4.100,0.000,2.995,0.179,11.658,0.544,0.000,37.933
13048,4.101,0.000,2.995,0.179,11.658,0.544,0.000,37.047
13138,4.101,0.000,2.995,0.179,11.658,0.544,0.000,36.432
13228,4.101,0.000,2.995,0.179,11.658,0.544,0.000,35.928
13318,4.102,0.000,2.995,0.179,11.658,0.544,0.000,35.614
13408,4.102,0.000,2.995,0.179,11.658,0.544,0.000,35.365
13498,4.102,0.000,2.995,0.179,11.658,0.544,0.000,35.182
13588,4.102,0.000,2.995,0.179,11.658,0.544,0.000,35.060
13678,4.102,0.000,2.995,0.179,11.658,0.544,0.000,34.955
13768,4.102,0.000,2.995,0.179,11.658,0.544,0.000,34.884
13858,4.102,0.000,2.995,0.179,11.658,0.544,0.000,34.855
13948,4.102,0.000,2.995,0.179,11.658,0.544,0.000,34.774
14038,4.102,0.000,2.995,0.179,11.658,0.544,0.000,34.775
14128,4.102,0.000,2.995,0.179,11.658,0.544,0.000,34.714
14218,4.102,0.000,2.995,0.179,11.658,0.544,0.000,34.728
14308,4.102,0.000,2.995,0.179,11.658,0.544,0.000,34.727
14398,4.103,0.000,2.995,0.179,11.658,0.544,0.000,34.707
14488,4.103,0.000,2.995,0.179,11.658,0.544,0.000,34.696
14578,4.103,0.000,2.995,0.179,11.658,0.544,0.000,34.677
14668,4.103,0.000,2.995,0.179,11.658,0.544,0.000,34.677
14758,4.103,0.000,2.995,0.179,11.658,0.544,0.000,34.659
14848,4.103,0.000,2.995,0.179,11.658,0.544,0.000,34.660
14938,4.103,0.000,2.995,0.179,11.658,0.544,0.000,34.681
15028,4.103,0.000,2.995,0.179,11.658,0.544,0.000,34.593
15118,4.103,0.000,2.995,0.179,11.658,0.544,0.000,34.658
15208,4.103,0.000,2.995,0.179,11.658,0.544,0.000,34.658
15298,4.103,0.000,2.995,0.179,11.658,0.544,0.000,34.661
15388,4.103,0.000,2.995,0.179,11.658,0.544,0.000,34.664
15478,4.103,0.000,2.995,0.179,11.658,0.544,0.000,34.625
15568,4.103,0.000,2.995,0.179,11.658,0.544,0.000,34.616
15658,4.103,0.000,2.995,0.179,11.658,0.544,0.000,34.682
15748,4.103,0.000,2.995,0.179,11.658,0.544,0.000,34.673
15838,4.103,0.000,2.995,0.179,11.658,0.544,0.000,34.659
15928,4.103,0.000,2.995,0.179,11.658,0.544,0.000,34.638
16018,4.103,0.000,2.995,0.179,11.658,0.544,0.000,34.720
16108,4.103,0.000,2.995,0.179,11.658,0.544,0.000,34.673
16198,4.103,0.000,2.995,0.179,11.658,0.544,0.000,34.659
16288,4.103,0.000,2.995,0.179,11.658,0.544,0.000,34.703
16319,4.103,0.000,2.995,0.179,11.658,0.544,0.000,34.674

File: 2.csv
time_s,voltage_v,current_a,chargecapacity_ah,dischargecapacity_ah,charge_energy_wh,discharge_energy_wh,voltagedot_v_per_s,temp_degc
1,3.410,0.000,0.000,0.000,0.000,0.000,0.000,34.696
88,3.553,1.625,0.013,0.000,0.045,0.000,0.001,34.773
176,3.582,1.625,0.052,0.000,0.187,0.000,0.000,34.865
264,3.601,1.625,0.092,0.000,0.329,0.000,0.000,34.993
352,3.615,1.625,0.132,0.000,0.473,0.000,0.000,35.074
440,3.628,1.625,0.172,0.000,0.616,0.000,0.000,35.162
528,3.637,1.625,0.211,0.000,0.761,0.000,0.000,35.254
616,3.646,1.625,0.251,0.000,0.905,0.000,0.000,35.240
704,3.654,1.625,0.291,0.000,1.050,0.000,0.000,35.273
792,3.662,1.625,0.330,0.000,1.196,0.000,0.000,35.328
880,3.670,1.625,0.370,0.000,1.341,0.000,0.000,35.368
968,3.678,1.625,0.410,0.000,1.487,0.000,0.000,35.441
1056,3.686,1.625,0.450,0.000,1.634,0.000,0.000,35.516
1144,3.695,1.625,0.489,0.000,1.780,0.000,0.000,35.535
1232,3.703,1.625,0.529,0.000,1.927,0.000,0.000,35.550
1320,3.711,1.625,0.569,0.000,2.074,0.000,0.000,35.557
1408,3.719,1.625,0.609,0.000,2.222,0.000,0.000,35.585
1496,3.728,1.625,0.648,0.000,2.370,0.000,0.000,35.607
1584,3.736,1.625,0.688,0.000,2.518,0.000,0.000,35.684
1672,3.744,1.625,0.728,0.000,2.667,0.000,0.000,35.714
1760,3.751,1.625,0.767,0.000,2.816,0.000,0.000,35.755
1848,3.758,1.625,0.807,0.000,2.965,0.000,0.000,35.802
1936,3.766,1.625,0.847,0.000,3.114,0.000,0.000,35.785
2024,3.773,1.625,0.887,0.000,3.264,0.000,0.000,35.805
2112,3.780,1.625,0.926,0.000,3.414,0.000,0.000,35.825
2200,3.788,1.625,0.966,0.000,3.564,0.000,0.000,35.831
2288,3.796,1.625,1.006,0.000,3.715,0.000,0.000,35.812
2376,3.805,1.625,1.046,0.000,3.866,0.000,0.000,35.800
2464,3.813,1.625,1.085,0.000,4.017,0.000,0.000,35.797
2552,3.822,1.625,1.125,0.000,4.169,0.000,0.000,35.813
2640,3.832,1.625,1.165,0.000,4.321,0.000,0.000,35.847
2728,3.841,1.625,1.204,0.000,4.473,0.000,0.000,35.867
2816,3.851,1.625,1.244,0.000,4.626,0.000,0.000,35.818
2904,3.862,1.625,1.284,0.000,4.779,0.000,0.000,35.853
2992,3.873,1.625,1.324,0.000,4.933,0.000,0.000,35.843
3080,3.884,1.625,1.363,0.000,5.087,0.000,0.000,35.807
3168,3.895,1.625,1.403,0.000,5.242,0.000,0.000,35.847
3256,3.907,1.625,1.443,0.000,5.397,0.000,0.000,35.831
3344,3.918,1.625,1.482,0.000,5.552,0.000,0.000,35.834
3432,3.930,1.625,1.522,0.000,5.708,0.000,0.000,35.788
3520,3.941,1.625,1.562,0.000,5.864,0.000,0.000,35.797
3608,3.953,1.625,1.602,0.000,6.021,0.000,0.000,35.820
3696,3.965,1.625,1.641,0.000,6.178,0.000,0.000,35.765
3784,3.977,1.625,1.681,0.000,6.336,0.000,0.000,35.725
3872,3.988,1.625,1.721,0.000,6.494,0.000,0.000,35.719
3960,3.999,1.625,1.761,0.000,6.653,0.000,0.000,35.702
4048,4.011,1.625,1.800,0.000,6.812,0.000,0.000,35.711
4136,4.022,1.625,1.840,0.000,6.972,0.000,0.000,35.668
4224,4.033,1.625,1.880,0.000,7.132,0.000,0.000,35.664
4312,4.044,1.625,1.919,0.000,7.292,0.000,0.000,35.700
4400,4.056,1.625,1.959,0.000,7.453,0.000,0.000,35.688
4488,4.068,1.625,1.999,0.000,7.614,0.000,0.000,35.737
4576,4.080,1.625,2.039,0.000,7.776,0.000,0.000,35.790
4664,4.093,1.625,2.078,0.000,7.938,0.000,0.000,35.760
4752,4.107,1.625,2.118,0.000,8.101,0.000,0.000,35.775
4840,4.121,1.625,2.158,0.000,8.265,0.000,0.000,35.734
4928,4.136,1.625,2.198,0.000,8.429,0.000,0.000,35.762
5016,4.151,1.625,2.237,0.000,8.593,0.000,0.000,35.817
5104,4.167,1.625,2.277,0.000,8.759,0.000,0.000,35.844
5192,4.183,1.625,2.317,0.000,8.924,0.000,0.000,35.847
5280,4.199,1.625,2.356,0.000,9.091,0.000,0.000,35.874
5367,4.200,1.449,2.394,0.000,9.247,0.000,0.000,35.867
5455,4.200,1.321,2.427,0.000,9.389,0.000,0.000,35.798
5543,4.200,1.211,2.458,0.000,9.519,0.000,0.000,35.744
5631,4.200,1.116,2.487,0.000,9.638,0.000,0.000,35.680
5719,4.200,1.035,2.513,0.000,9.749,0.000,0.000,35.563
5807,4.200,0.962,2.537,0.000,9.851,0.000,0.000,35.490
5895,4.200,0.897,2.560,0.000,9.946,0.000,0.000,35.415
5983,4.200,0.838,2.581,0.000,10.035,0.000,0.000,35.346
6071,4.200,0.785,2.601,0.000,10.119,0.000,0.000,35.302
6159,4.200,0.734,2.620,0.000,10.196,0.000,0.000,35.243
6247,4.200,0.686,2.637,0.000,10.269,0.000,0.000,35.166
6335,4.200,0.640,2.653,0.000,10.337,0.000,0.000,35.097
6423,4.200,0.597,2.668,0.000,10.401,0.000,0.000,35.051
6511,4.200,0.556,2.682,0.000,10.460,0.000,0.000,35.056
6599,4.200,0.517,2.696,0.000,10.515,0.000,0.000,35.023
6687,4.200,0.479,2.708,0.000,10.566,0.000,0.000,34.950
6775,4.200,0.443,2.719,0.000,10.613,0.000,0.000,34.937
6863,4.200,0.409,2.729,0.000,10.657,0.000,0.000,34.936
6951,4.200,0.378,2.739,0.000,10.698,0.000,0.000,34.843
7039,4.200,0.348,2.748,0.000,10.735,0.000,0.000,34.816
7127,4.200,0.321,2.756,0.000,10.769,0.000,0.000,34.857
7215,4.200,0.294,2.764,0.000,10.801,0.000,0.000,34.795
7303,4.200,0.270,2.770,0.000,10.830,0.000,0.000,34.798
7391,4.200,0.248,2.777,0.000,10.856,0.000,0.000,34.767
7479,4.200,0.227,2.783,0.000,10.880,0.000,0.000,34.757
7567,4.200,0.208,2.788,0.000,10.903,0.000,0.000,34.700
7655,4.200,0.190,2.793,0.000,10.923,0.000,0.000,34.727
7743,4.200,0.174,2.797,0.000,10.942,0.000,0.000,34.709
7831,4.200,0.161,2.801,0.000,10.959,0.000,0.000,34.752
7919,4.200,0.147,2.805,0.000,10.975,0.000,0.000,34.703
8007,4.200,0.135,2.808,0.000,10.989,0.000,0.000,34.699
8095,4.200,0.124,2.812,0.000,11.002,0.000,0.000,34.643
8183,4.200,0.114,2.814,0.000,11.015,0.000,0.000,34.632
8271,4.200,0.104,2.817,0.000,11.026,0.000,0.000,34.656
8359,4.200,0.096,2.820,0.000,11.036,0.000,0.000,34.697
8447,4.200,0.088,2.822,0.000,11.045,0.000,0.000,34.677
8535,4.200,0.082,2.824,0.000,11.054,0.000,0.000,34.667
8623,4.200,0.075,2.826,0.000,11.062,0.000,0.000,34.693
8711,4.200,0.070,2.828,0.000,11.070,0.000,0.000,34.630
8799,4.195,0.000,2.829,0.000,11.075,0.000,0.000,34.624
8887,4.193,0.000,2.829,0.000,11.075,0.000,0.000,34.633
8975,4.191,0.000,2.829,0.000,11.075,0.000,0.000,34.611
9063,4.191,0.000,2.829,0.000,11.075,0.000,0.000,34.580
9151,4.190,0.000,2.829,0.000,11.075,0.000,0.000,34.634
9239,4.189,0.000,2.829,0.000,11.075,0.000,0.000,34.618
9327,4.189,0.000,2.829,0.000,11.075,0.000,0.000,34.643
9415,4.188,0.000,2.829,0.000,11.075,0.000,0.000,34.595
9503,4.188,0.000,2.829,0.000,11.075,0.000,0.000,34.578
9591,4.187,0.000,2.829,0.000,11.075,0.000,0.000,34.574
9679,4.187,0.000,2.829,0.000,11.075,0.000,0.000,34.544
9767,4.187,0.000,2.829,0.000,11.075,0.000,0.000,34.607
9855,4.186,0.000,2.829,0.000,11.075,0.000,0.000,34.643
9943,4.186,0.000,2.829,0.000,11.075,0.000,0.000,34.625
10031,4.186,0.000,2.829,0.000,11.075,0.000,0.000,34.589
10119,4.186,0.000,2.829,0.000,11.075,0.000,0.000,34.609
10207,4.185,0.000,2.829,0.000,11.075,0.000,0.000,34.588
10295,4.185,0.000,2.829,0.000,11.075,0.000,0.000,34.630
10383,4.185,0.000,2.829,0.000,11.075,0.000,0.000,34.605
10471,4.185,0.000,2.829,0.000,11.075,0.000,0.000,34.628
10559,4.184,0.000,2.829,0.000,11.075,0.000,0.000,34.637
10647,4.184,0.000,2.829,0.000,11.075,0.000,0.000,34.599
10735,4.184,0.000,2.829,0.000,11.075,0.000,0.000,34.561
10823,4.184,0.000,2.829,0.000,11.075,0.000,0.000,34.603
10911,4.184,0.000,2.829,0.000,11.075,0.000,0.000,34.606
10999,4.183,0.000,2.829,0.000,11.075,0.000,0.000,34.625
11087,4.183,0.000,2.829,0.000,11.075,0.000,0.000,34.613
11175,4.183,0.000,2.829,0.000,11.075,0.000,0.000,34.643
11263,4.183,0.000,2.829,0.000,11.075,0.000,0.000,34.630
11351,4.183,0.000,2.829,0.000,11.075,0.000,0.000,34.613
11439,4.183,0.000,2.829,0.000,11.075,0.000,0.000,34.639
11527,4.183,0.000,2.829,0.000,11.075,0.000,0.000,34.632
11615,4.183,0.000,2.829,0.000,11.075,0.000,0.000,34.654
11703,4.183,0.000,2.829,0.000,11.075,0.000,0.000,34.602
11791,4.182,0.000,2.829,0.000,11.075,0.000,0.000,34.633
11879,4.182,0.000,2.829,0.000,11.075,0.000,0.000,34.614
11967,4.182,0.000,2.829,0.000,11.075,0.000,0.000,34.541
12055,4.182,0.000,2.829,0.000,11.075,0.000,0.000,34.579
12143,4.182,0.000,2.829,0.000,11.075,0.000,0.000,34.573
12231,4.182,0.000,2.829,0.000,11.075,0.000,0.000,34.564
12319,4.182,0.000,2.829,0.000,11.075,0.000,0.000,34.548
12406,4.017,0.000,2.829,0.093,11.075,0.272,0.014,37.011
12494,4.120,0.000,2.829,0.093,11.075,0.272,0.000,37.942
12582,4.126,0.000,2.829,0.093,11.075,0.272,0.000,36.904
12670,4.128,0.000,2.829,0.093,11.075,0.272,0.000,36.255
12758,4.128,0.000,2.829,0.093,11.075,0.272,0.000,35.854
12846,4.129,0.000,2.829,0.093,11.075,0.272,0.000,35.504
12934,4.129,0.000,2.829,0.093,11.075,0.272,0.000,35.244
13022,4.129,0.000,2.829,0.093,11.075,0.272,0.000,35.084
13110,4.130,0.000,2.829,0.093,11.075,0.272,0.000,34.932
13198,4.130,0.000,2.829,0.093,11.075,0.272,0.000,34.813
13286,4.130,0.000,2.829,0.093,11.075,0.272,0.000,34.792
13374,4.130,0.000,2.829,0.093,11.075,0.272,0.000,34.775
13462,4.130,0.000,2.829,0.093,11.075,0.272,0.000,34.705
13550,4.130,0.000,2.829,0.093,11.075,0.272,0.000,34.670
13638,4.130,0.000,2.829,0.093,11.075,0.272,0.000,34.678
13726,4.130,0.000,2.829,0.093,11.075,0.272,0.000,34.659
13814,4.130,0.000,2.829,0.093,11.075,0.272,0.000,34.639
13902,4.130,0.000,2.829,0.093,11.075,0.272,0.000,34.612
13990,4.131,0.000,2.829,0.093,11.075,0.272,0.000,34.602
14078,4.130,0.000,2.829,0.093,11.075,0.272,0.000,34.607
14166,4.130,0.000,2.829,0.093,11.075,0.272,0.000,34.655
14254,4.130,0.000,2.829,0.093,11.075,0.272,0.000,34.629
14342,4.131,0.000,2.829,0.093,11.075,0.272,0.000,34.587
14430,4.131,0.000,2.829,0.093,11.075,0.272,0.000,34.610
14518,4.130,0.000,2.829,0.093,11.075,0.272,0.000,34.614
14606,4.131,0.000,2.829,0.093,11.075,0.272,0.000,34.605
14694,4.131,0.000,2.829,0.093,11.075,0.272,0.000,34.633
14782,4.131,0.000,2.829,0.093,11.075,0.272,0.000,34.613
14870,4.131,0.000,2.829,0.093,11.075,0.272,0.000,34.610
14958,4.131,0.000,2.829,0.093,11.075,0.272,0.000,34.629
15046,4.131,0.000,2.829,0.093,11.075,0.272,0.000,34.616
15134,4.131,0.000,2.829,0.093,11.075,0.272,0.000,34.582
15222,4.131,0.000,2.829,0.093,11.075,0.272,0.000,34.592
15310,4.131,0.000,2.829,0.093,11.075,0.272,0.000,34.568
15398,4.131,0.000,2.829,0.093,11.075,0.272,0.000,34.610
15486,4.131,0.000,2.829,0.093,11.075,0.272,0.000,34.579
15574,4.131,0.000,2.829,0.093,11.075,0.272,0.000,34.639
15662,4.131,0.000,2.829,0.093,11.075,0.272,0.000,34.591
15750,4.131,0.000,2.829,0.093,11.075,0.272,0.000,34.645
15838,4.131,0.000,2.829,0.093,11.075,0.272,0.000,34.596
15926,4.131,0.000,2.829,0.093,11.075,0.272,0.000,34.593
16003,4.131,0.000,2.829,0.093,11.075,0.272,0.000,34.637