Folder: EE-292X-Battery-Modeling/data/T35/HPPC

Note: README.md
# ee292x
Machine Learning project for Autumn 2019 EE292X at Stanford

File: 3.csv
time_s,voltage_v,current_a,chargecapacity_ah,dischargecapacity_ah,charge_energy_wh,discharge_energy_wh,voltagedot_v_per_s,temp_degc
1,3.773,0.000,0.000,0.000,0.000,0.000,0.000,35.100
271,3.773,0.000,0.000,0.000,0.000,0.000,0.000,35.087
541,3.773,0.000,0.000,0.000,0.000,0.000,0.000,35.089
811,3.773,0.000,0.000,0.000,0.000,0.000,0.000,35.148
1081,3.773,0.000,0.000,0.000,0.000,0.000,0.000,35.040
1351,3.773,0.000,0.000,0.000,0.000,0.000,0.000,35.223
1621,3.773,0.000,0.000,0.000,0.000,0.000,0.000,35.115
1891,3.773,0.000,0.000,0.000,0.000,0.000,0.000,35.134
2161,3.773,0.000,0.000,0.000,0.000,0.000,0.000,35.081
2431,3.773,0.000,0.000,0.000,0.000,0.000,0.000,35.053
2701,3.773,0.000,0.000,0.000,0.000,0.000,0.000,35.063
2971,3.773,0.000,0.000,0.000,0.000,0.000,0.000,35.037
3241,3.773,0.000,0.000,0.000,0.000,0.000,0.000,35.062
3511,3.773,0.000,0.000,0.000,0.000,0.000,0.000,35.025
3780,3.896,1.625,0.081,0.000,0.315,0.000,0.000,35.331
4050,3.935,1.625,0.203,0.000,0.793,0.000,0.000,35.619
4320,3.972,1.625,0.325,0.000,1.275,0.000,0.000,35.765
4590,4.009,1.625,0.447,0.000,1.761,0.000,0.000,35.870
4860,4.047,1.625,0.569,0.000,2.252,0.000,0.000,35.920
5130,4.089,1.625,0.691,0.000,2.748,0.000,0.000,36.099
5400,4.138,1.625,0.813,0.000,3.249,0.000,0.000,36.206
5670,4.190,1.625,0.935,0.000,3.757,0.000,0.000,36.267
5940,4.200,1.222,1.042,0.000,4.209,0.000,0.000,36.210
6210,4.200,0.934,1.122,0.000,4.546,0.000,0.000,35.991
6480,4.200,0.720,1.184,0.000,4.805,0.000,0.000,35.732
6750,4.200,0.546,1.231,0.000,5.003,0.000,0.000,35.527
7020,4.200,0.406,1.267,0.000,5.152,0.000,0.000,35.312
7290,4.200,0.299,1.293,0.000,5.262,0.000,0.000,35.234
7560,4.200,0.217,1.312,0.000,5.342,0.000,0.000,35.167
7830,4.200,0.160,1.326,0.000,5.401,0.000,0.000,35.063
8100,4.200,0.117,1.336,0.000,5.444,0.000,0.000,34.997
8370,4.200,0.088,1.344,0.000,5.476,0.000,0.000,35.020
8640,4.200,0.066,1.350,0.000,5.500,0.000,0.000,34.990
8909,4.192,0.000,1.350,0.000,5.501,0.000,0.000,34.978
9179,4.190,0.000,1.350,0.000,5.501,0.000,0.000,34.958
9449,4.188,0.000,1.350,0.000,5.501,0.000,0.000,34.975
9719,4.188,0.000,1.350,0.000,5.501,0.000,0.000,34.964
9989,4.187,0.000,1.350,0.000,5.501,0.000,0.000,34.952
10259,4.186,0.000,1.350,0.000,5.501,0.000,0.000,34.900
10529,4.186,0.000,1.350,0.000,5.501,0.000,0.000,34.936
10799,4.186,0.000,1.350,0.000,5.501,0.000,0.000,34.910
11069,4.185,0.000,1.350,0.000,5.501,0.000,0.000,34.904
11339,4.185,0.000,1.350,0.000,5.501,0.000,0.000,34.925
11609,4.185,0.000,1.350,0.000,5.501,0.000,0.000,34.867
11879,4.184,0.000,1.350,0.000,5.501,0.000,0.000,34.931
12149,4.184,0.000,1.350,0.000,5.501,0.000,0.000,35.019
12418,3.885,-3.350,1.350,0.162,5.501,0.634,0.000,36.073
12687,4.044,0.000,1.350,0.335,5.501,1.303,0.000,36.490
12957,4.057,0.000,1.350,0.335,5.501,1.303,0.000,35.627
13227,4.058,0.000,1.350,0.335,5.501,1.303,0.000,35.230
13497,4.059,0.000,1.350,0.335,5.501,1.303,0.000,35.078
13767,4.060,0.000,1.350,0.335,5.501,1.303,0.000,34.967
14037,4.060,0.000,1.350,0.335,5.501,1.303,0.000,34.910
14307,4.060,0.000,1.350,0.335,5.501,1.303,0.000,34.867
14577,4.060,0.000,1.350,0.335,5.501,1.303,0.000,34.878
14847,4.060,0.000,1.350,0.335,5.501,1.303,0.000,34.868
15117,4.060,0.000,1.350,0.335,5.501,1.303,0.000,34.849
15387,4.060,0.000,1.350,0.335,5.501,1.303,0.000,34.892
15657,4.061,0.000,1.350,0.335,5.501,1.303,0.000,34.886
15927,4.061,0.000,1.350,0.335,5.501,1.303,0.000,34.879
16197,4.061,0.000,1.350,0.335,5.501,1.303,0.000,34.877
16463,3.783,-3.350,1.356,0.491,5.527,1.897,0.000,35.765
16732,3.913,0.000,1.356,0.679,5.527,2.602,0.000,36.390
17002,3.933,0.000,1.356,0.679,5.527,2.602,0.000,35.752
17272,3.944,0.000,1.356,0.679,5.527,2.602,0.000,35.270
17542,3.945,0.000,1.356,0.679,5.527,2.602,0.000,35.098
17812,3.945,0.000,1.356,0.679,5.527,2.602,0.000,34.974
18082,3.946,0.000,1.356,0.679,5.527,2.602,0.000,34.950
18352,3.946,0.000,1.356,0.679,5.527,2.602,0.000,34.891
18622,3.946,0.000,1.356,0.679,5.527,2.602,0.000,34.884
18892,3.946,0.000,1.356,0.679,5.527,2.602,0.000,34.922
19162,3.946,0.000,1.356,0.679,5.527,2.602,0.000,34.902
19432,3.947,0.000,1.356,0.679,5.527,2.602,0.000,34.890
19702,3.947,0.000,1.356,0.679,5.527,2.602,0.000,34.856
19972,3.947,0.000,1.356,0.679,5.527,2.602,0.000,34.919
20242,3.947,0.000,1.356,0.679,5.527,2.602,0.000,34.888
20507,3.687,-3.350,1.362,0.819,5.552,3.125,0.000,35.606
20776,3.815,0.000,1.362,1.022,5.552,3.866,0.000,36.353
21046,3.835,0.000,1.362,1.022,5.552,3.866,0.000,35.740
21316,3.840,0.000,1.362,1.022,5.552,3.866,0.000,35.441
21586,3.849,0.000,1.362,1.022,5.552,3.866,0.000,35.229
21856,3.857,0.000,1.362,1.022,5.552,3.866,0.000,35.078
22126,3.859,0.000,1.362,1.022,5.552,3.866,0.000,34.965
22396,3.860,0.000,1.362,1.022,5.552,3.866,0.000,34.980
22666,3.860,0.000,1.362,1.022,5.552,3.866,0.000,34.934
22936,3.861,0.000,1.362,1.022,5.552,3.866,0.000,35.047
23206,3.861,0.000,1.362,1.022,5.552,3.866,0.000,34.990
23476,3.861,0.000,1.362,1.022,5.552,3.866,0.000,34.966
23746,3.861,0.000,1.362,1.022,5.552,3.866,0.000,34.964
24016,3.861,0.000,1.362,1.022,5.552,3.866,0.000,34.929
24286,3.861,0.000,1.362,1.022,5.552,3.866,0.000,34.928
24551,3.607,-3.350,1.369,1.148,5.577,4.324,-0.001,35.459
24820,3.714,0.000,1.369,1.365,5.577,5.101,0.001,36.388
25090,3.742,0.000,1.369,1.365,5.577,5.101,0.000,35.710
25360,3.746,0.000,1.369,1.365,5.577,5.101,0.000,35.451
25630,3.748,0.000,1.369,1.365,5.577,5.101,0.000,35.272
25900,3.750,0.000,1.369,1.365,5.577,5.101,0.000,35.170
26170,3.753,0.000,1.369,1.365,5.577,5.101,0.000,35.120
26440,3.758,0.000,1.369,1.365,5.577,5.101,0.000,35.033
26710,3.763,0.000,1.369,1.365,5.577,5.101,0.000,35.041
26980,3.766,0.000,1.369,1.365,5.577,5.101,0.000,34.890
27250,3.768,0.000,1.369,1.365,5.577,5.101,0.000,34.904
27520,3.769,0.000,1.369,1.365,5.577,5.101,0.000,34.906
27790,3.770,0.000,1.369,1.365,5.577,5.101,0.000,34.947
28060,3.770,0.000,1.369,1.365,5.577,5.101,0.000,34.883
28330,3.770,0.000,1.369,1.365,5.577,5.101,0.000,34.855
28596,3.521,-3.350,1.375,1.476,5.601,5.494,0.000,35.387
28865,3.619,0.000,1.375,1.709,5.601,6.303,0.001,36.256
29135,3.654,0.000,1.375,1.709,5.601,6.303,0.000,35.474
29405,3.658,0.000,1.375,1.709,5.601,6.303,0.000,35.215
29675,3.659,0.000,1.375,1.709,5.601,6.303,0.000,35.102
29945,3.660,0.000,1.375,1.709,5.601,6.303,0.000,34.981
30215,3.661,0.000,1.375,1.709,5.601,6.303,0.000,34.967
30485,3.661,0.000,1.375,1.709,5.601,6.303,0.000,34.925
30755,3.662,0.000,1.375,1.709,5.601,6.303,0.000,34.944
31025,3.662,0.000,1.375,1.709,5.601,6.303,0.000,34.945
31295,3.662,0.000,1.375,1.709,5.601,6.303,0.000,34.898
31565,3.662,0.000,1.375,1.709,5.601,6.303,0.000,34.903
31835,3.662,0.000,1.375,1.709,5.601,6.303,0.000,34.861
32105,3.662,0.000,1.375,1.709,5.601,6.303,0.000,34.897
32375,3.663,0.000,1.375,1.709,5.601,6.303,0.000,34.852
32640,3.430,-3.350,1.381,1.805,5.625,6.635,0.000,35.300
32909,3.518,0.000,1.381,2.052,5.625,7.475,0.003,36.560
33179,3.589,0.000,1.381,2.052,5.625,7.475,0.000,35.565
33449,3.594,0.000,1.381,2.052,5.625,7.475,0.000,35.178
33719,3.595,0.000,1.381,2.052,5.625,7.475,0.000,34.963
33989,3.596,0.000,1.381,2.052,5.625,7.475,0.000,35.001
34259,3.597,0.000,1.381,2.052,5.625,7.475,0.000,35.024
34529,3.597,0.000,1.381,2.052,5.625,7.475,0.000,34.996
34799,3.598,0.000,1.381,2.052,5.625,7.475,0.000,35.057
35069,3.598,0.000,1.381,2.052,5.625,7.475,0.000,35.064
35339,3.598,0.000,1.381,2.052,5.625,7.475,0.000,35.086
35609,3.599,0.000,1.381,2.052,5.625,7.475,0.000,35.071
35879,3.599,0.000,1.381,2.052,5.625,7.475,0.000,35.067
36149,3.599,0.000,1.381,2.052,5.625,7.475,0.000,35.061
36419,3.599,0.000,1.381,2.052,5.625,7.475,0.000,35.108
36684,3.364,-3.350,1.387,2.133,5.648,7.750,0.000,35.563
36954,3.274,-3.350,1.387,2.384,5.648,8.583,0.000,37.171
37224,3.520,0.000,1.387,2.396,5.648,8.619,0.000,36.099
37494,3.532,0.000,1.387,2.396,5.648,8.619,0.000,35.535
37764,3.537,0.000,1.387,2.396,5.648,8.619,0.000,35.313
38034,3.539,0.000,1.387,2.396,5.648,8.619,0.000,35.163
38304,3.540,0.000,1.387,2.396,5.648,8.619,0.000,35.093
38574,3.541,0.000,1.387,2.396,5.648,8.619,0.000,35.063
38844,3.542,0.000,1.387,2.396,5.648,8.619,0.000,35.065
39114,3.542,0.000,1.387,2.396,5.648,8.619,0.000,35.047
39384,3.542,0.000,1.387,2.396,5.648,8.619,0.000,35.050
39654,3.543,0.000,1.387,2.396,5.648,8.619,0.000,35.064
39924,3.543,0.000,1.387,2.396,5.648,8.619,0.000,35.059
40194,3.543,0.000,1.387,2.396,5.648,8.619,0.000,35.005
40464,3.544,0.000,1.387,2.396,5.648,8.619,0.000,35.020
40729,3.303,-3.350,1.394,2.462,5.671,8.840,-0.001,35.500
40999,3.174,-3.350,1.394,2.713,5.671,9.652,0.000,37.410
41268,3.421,0.000,1.394,2.739,5.671,9.735,0.000,36.461
41538,3.436,0.000,1.394,2.739,5.671,9.735,0.000,35.702
41808,3.441,0.000,1.394,2.739,5.671,9.735,0.000,35.340
42078,3.443,0.000,1.394,2.739,5.671,9.735,0.000,35.149
42348,3.444,0.000,1.394,2.739,5.671,9.735,0.000,35.082
42618,3.444,0.000,1.394,2.739,5.671,9.735,0.000,35.075
42888,3.445,0.000,1.394,2.739,5.671,9.735,0.000,35.046
43158,3.445,0.000,1.394,2.739,5.671,9.735,0.000,34.991
43428,3.445,0.000,1.394,2.739,5.671,9.735,0.000,34.968
43698,3.446,0.000,1.394,2.739,5.671,9.735,0.000,34.998
43968,3.446,0.000,1.394,2.739,5.671,9.735,0.000,34.947
44238,3.446,0.000,1.394,2.739,5.671,9.735,0.000,34.965
44508,3.446,0.000,1.394,2.739,5.671,9.735,0.000,34.961
44773,3.177,-3.350,1.400,2.790,5.693,9.900,-0.001,35.373
45043,2.930,-3.350,1.400,3.042,5.693,10.669,-0.001,38.083
45312,3.319,0.000,1.400,3.083,5.693,10.788,0.000,36.892
45582,3.325,0.000,1.400,3.083,5.693,10.788,0.000,35.861
45852,3.326,0.000,1.400,3.083,5.693,10.788,0.000,35.373
46122,3.328,0.000,1.400,3.083,5.693,10.788,0.000,35.144
46392,3.328,0.000,1.400,3.083,5.693,10.788,0.000,35.048
46662,3.329,0.000,1.400,3.083,5.693,10.788,0.000,35.010
46932,3.330,0.000,1.400,3.083,5.693,10.788,0.000,34.950
47202,3.330,0.000,1.400,3.083,5.693,10.788,0.000,34.940
47472,3.330,0.000,1.400,3.083,5.693,10.788,0.000,34.930
47742,3.331,0.000,1.400,3.083,5.693,10.788,0.000,34.883
48012,3.331,0.000,1.400,3.083,5.693,10.788,0.000,34.877
48282,3.331,0.000,1.400,3.083,5.693,10.788,0.000,34.978
48552,3.332,0.000,1.400,3.083,5.693,10.788,0.000,34.964
48818,2.818,-3.350,1.406,3.119,5.715,10.894,-0.005,35.486
48898,2.492,-3.350,1.406,3.193,5.715,11.092,-0.004,37.641

File: 4.csv
time_s,voltage_v,current_a,chargecapacity_ah,dischargecapacity_ah,charge_energy_wh,discharge_energy_wh,voltagedot_v_per_s,temp_degc
1,3.772,0.000,0.000,0.000,0.000,0.000,0.000,35.101
273,3.772,0.000,0.000,0.000,0.000,0.000,0.000,35.135
545,3.772,0.000,0.000,0.000,0.000,0.000,0.000,35.109
817,3.772,0.000,0.000,0.000,0.000,0.000,0.000,35.135
1089,3.772,0.000,0.000,0.000,0.000,0.000,0.000,35.119
1361,3.772,0.000,0.000,0.000,0.000,0.000,0.000,35.237
1633,3.772,0.000,0.000,0.000,0.000,0.000,0.000,35.176
1905,3.772,0.000,0.000,0.000,0.000,0.000,0.000,35.125
2177,3.772,0.000,0.000,0.000,0.000,0.000,0.000,35.115
2449,3.772,0.000,0.000,0.000,0.000,0.000,0.000,35.102
2721,3.772,0.000,0.000,0.000,0.000,0.000,0.000,35.124
2993,3.772,0.000,0.000,0.000,0.000,0.000,0.000,35.128
3265,3.772,0.000,0.000,0.000,0.000,0.000,0.000,35.123
3537,3.772,0.000,0.000,0.000,0.000,0.000,0.000,35.094
3808,3.945,1.625,0.094,0.000,0.369,0.000,0.000,35.486
4080,3.984,1.625,0.217,0.000,0.856,0.000,0.000,35.876
4352,4.022,1.625,0.340,0.000,1.347,0.000,0.000,36.161
4624,4.058,1.625,0.462,0.000,1.843,0.000,0.000,36.336
4896,4.097,1.625,0.585,0.000,2.344,0.000,0.000,36.563
5168,4.140,1.625,0.708,0.000,2.850,0.000,0.000,36.667
5440,4.190,1.625,0.831,0.000,3.361,0.000,0.000,36.836
5711,4.200,1.275,0.941,0.000,3.826,0.000,0.000,36.843
5983,4.200,1.000,1.026,0.000,4.184,0.000,0.000,36.533
6255,4.200,0.814,1.095,0.000,4.470,0.000,0.000,36.217
6527,4.200,0.673,1.151,0.000,4.705,0.000,0.000,36.001
6799,4.200,0.551,1.197,0.000,4.898,0.000,0.000,35.771
7071,4.200,0.444,1.234,0.000,5.056,0.000,0.000,35.580
7343,4.200,0.351,1.264,0.000,5.181,0.000,0.000,35.448
7615,4.200,0.273,1.288,0.000,5.280,0.000,0.000,35.338
7887,4.200,0.209,1.306,0.000,5.356,0.000,0.000,35.240
8159,4.200,0.160,1.320,0.000,5.414,0.000,0.000,35.182
8431,4.200,0.123,1.330,0.000,5.459,0.000,0.000,35.162
8703,4.200,0.094,1.338,0.000,5.493,0.000,0.000,35.125
8975,4.200,0.073,1.345,0.000,5.520,0.000,0.000,35.065
9247,4.191,0.000,1.347,0.000,5.529,0.000,0.000,35.047
9519,4.189,0.000,1.347,0.000,5.529,0.000,0.000,34.990
9791,4.188,0.000,1.347,0.000,5.529,0.000,0.000,35.012
10063,4.187,0.000,1.347,0.000,5.529,0.000,0.000,34.973
10335,4.186,0.000,1.347,0.000,5.529,0.000,0.000,34.978
10607,4.186,0.000,1.347,0.000,5.529,0.000,0.000,34.972
10879,4.185,0.000,1.347,0.000,5.529,0.000,0.000,34.963
11151,4.185,0.000,1.347,0.000,5.529,0.000,0.000,34.964
11423,4.184,0.000,1.347,0.000,5.529,0.000,0.000,34.937
11695,4.184,0.000,1.347,0.000,5.529,0.000,0.000,34.975
11967,4.184,0.000,1.347,0.000,5.529,0.000,0.000,34.970
12239,4.183,0.000,1.347,0.000,5.529,0.000,0.000,35.050
12511,4.183,0.000,1.347,0.000,5.529,0.000,0.000,35.020
12782,3.833,-3.350,1.347,0.080,5.529,0.309,0.000,35.516
13054,3.747,-3.350,1.347,0.333,5.529,1.268,0.000,37.202
13325,4.055,0.000,1.347,0.335,5.529,1.275,0.000,36.296
13597,4.057,0.000,1.347,0.335,5.529,1.275,0.000,35.717
13869,4.058,0.000,1.347,0.335,5.529,1.275,0.000,35.390
14141,4.058,0.000,1.347,0.335,5.529,1.275,0.000,35.143
14413,4.059,0.000,1.347,0.335,5.529,1.275,0.000,35.023
14685,4.059,0.000,1.347,0.335,5.529,1.275,0.000,34.977
14957,4.059,0.000,1.347,0.335,5.529,1.275,0.000,34.982
15229,4.059,0.000,1.347,0.335,5.529,1.275,0.000,34.961
15501,4.059,0.000,1.347,0.335,5.529,1.275,0.000,34.947
15773,4.059,0.000,1.347,0.335,5.529,1.275,0.000,34.927
16045,4.060,0.000,1.347,0.335,5.529,1.275,0.000,34.958
16317,4.060,0.000,1.347,0.335,5.529,1.275,0.000,34.938
16589,4.060,0.000,1.347,0.335,5.529,1.275,0.000,34.915
16857,3.714,-3.350,1.353,0.437,5.556,1.656,0.000,35.601
17128,3.887,0.000,1.353,0.679,5.556,2.543,0.001,37.013
17400,3.928,0.000,1.353,0.679,5.556,2.543,0.000,36.409
17672,3.941,0.000,1.353,0.679,5.556,2.543,0.000,35.773
17944,3.943,0.000,1.353,0.679,5.556,2.543,0.000,35.351
18216,3.944,0.000,1.353,0.679,5.556,2.543,0.000,35.149
18488,3.944,0.000,1.353,0.679,5.556,2.543,0.000,35.084
18760,3.944,0.000,1.353,0.679,5.556,2.543,0.000,34.995
19032,3.945,0.000,1.353,0.679,5.556,2.543,0.000,34.944
19304,3.945,0.000,1.353,0.679,5.556,2.543,0.000,34.929
19576,3.945,0.000,1.353,0.679,5.556,2.543,0.000,34.874
19848,3.945,0.000,1.353,0.679,5.556,2.543,0.000,34.876
20120,3.945,0.000,1.353,0.679,5.556,2.543,0.000,34.909
20392,3.945,0.000,1.353,0.679,5.556,2.543,0.000,34.933
20664,3.945,0.000,1.353,0.679,5.556,2.543,0.000,34.924
20931,3.602,-3.350,1.359,0.793,5.582,2.960,0.000,35.543
21202,3.803,0.000,1.359,1.022,5.582,3.775,0.001,36.940
21474,3.832,0.000,1.359,1.022,5.582,3.775,0.000,36.295
21746,3.838,0.000,1.359,1.022,5.582,3.775,0.000,35.852
22018,3.847,0.000,1.359,1.022,5.582,3.775,0.000,35.528
22290,3.855,0.000,1.359,1.022,5.582,3.775,0.000,35.249
22562,3.857,0.000,1.359,1.022,5.582,3.775,0.000,35.119
22834,3.858,0.000,1.359,1.022,5.582,3.775,0.000,35.062
23106,3.859,0.000,1.359,1.022,5.582,3.775,0.000,35.221
23378,3.859,0.000,1.359,1.022,5.582,3.775,0.000,34.996
23650,3.859,0.000,1.359,1.022,5.582,3.775,0.000,34.970
23922,3.859,0.000,1.359,1.022,5.582,3.775,0.000,34.961
24194,3.859,0.000,1.359,1.022,5.582,3.775,0.000,34.961
24466,3.859,0.000,1.359,1.022,5.582,3.775,0.000,34.931
24738,3.860,0.000,1.359,1.022,5.582,3.775,0.000,34.863
25006,3.511,-3.350,1.366,1.150,5.607,4.228,0.000,35.677
25277,3.715,0.000,1.366,1.366,5.607,4.977,0.001,36.928
25549,3.740,0.000,1.366,1.366,5.607,4.977,0.000,36.250
25821,3.743,0.000,1.366,1.366,5.607,4.977,0.000,35.795
26093,3.746,0.000,1.366,1.366,5.607,4.977,0.000,35.552
26365,3.748,0.000,1.366,1.366,5.607,4.977,0.000,35.360
26637,3.750,0.000,1.366,1.366,5.607,4.977,0.000,35.255
26909,3.754,0.000,1.366,1.366,5.607,4.977,0.000,35.129
27181,3.759,0.000,1.366,1.366,5.607,4.977,0.000,35.049
27453,3.763,0.000,1.366,1.366,5.607,4.977,0.000,34.994
27725,3.765,0.000,1.366,1.366,5.607,4.977,0.000,34.928
27997,3.766,0.000,1.366,1.366,5.607,4.977,0.000,34.941
28269,3.767,0.000,1.366,1.366,5.607,4.977,0.000,34.901
28541,3.768,0.000,1.366,1.366,5.607,4.977,0.000,34.866
28813,3.768,0.000,1.366,1.366,5.607,4.977,0.000,34.845
29080,3.411,-3.350,1.372,1.506,5.632,5.461,0.000,35.650
29351,3.634,0.000,1.372,1.709,5.632,6.146,0.000,36.662
29623,3.652,0.000,1.372,1.709,5.632,6.146,0.000,35.856
29895,3.655,0.000,1.372,1.709,5.632,6.146,0.000,35.422
30167,3.657,0.000,1.372,1.709,5.632,6.146,0.000,35.227
30439,3.658,0.000,1.372,1.709,5.632,6.146,0.000,35.063
30711,3.658,0.000,1.372,1.709,5.632,6.146,0.000,35.021
30983,3.658,0.000,1.372,1.709,5.632,6.146,0.000,34.927
31255,3.659,0.000,1.372,1.709,5.632,6.146,0.000,34.941
31527,3.659,0.000,1.372,1.709,5.632,6.146,0.000,34.897
31799,3.659,0.000,1.372,1.709,5.632,6.146,0.000,34.853
32071,3.660,0.000,1.372,1.709,5.632,6.146,0.000,34.863
32343,3.660,0.000,1.372,1.709,5.632,6.146,0.000,34.840
32615,3.660,0.000,1.372,1.709,5.632,6.146,0.000,34.794
32887,3.660,0.000,1.372,1.709,5.632,6.146,0.000,34.796
33154,3.310,-3.350,1.378,1.863,5.656,6.660,0.000,35.832
33425,3.565,0.000,1.378,2.052,5.656,7.284,0.000,36.905
33697,3.589,0.000,1.378,2.052,5.656,7.284,0.000,35.859
33969,3.592,0.000,1.378,2.052,5.656,7.284,0.000,35.520
34241,3.593,0.000,1.378,2.052,5.656,7.284,0.000,35.203
34513,3.594,0.000,1.378,2.052,5.656,7.284,0.000,35.086
34785,3.595,0.000,1.378,2.052,5.656,7.284,0.000,35.035
35057,3.595,0.000,1.378,2.052,5.656,7.284,0.000,35.050
35329,3.596,0.000,1.378,2.052,5.656,7.284,0.000,35.028
35601,3.596,0.000,1.378,2.052,5.656,7.284,0.000,35.051
35873,3.596,0.000,1.378,2.052,5.656,7.284,0.000,35.018
36145,3.596,0.000,1.378,2.052,5.656,7.284,0.000,35.006
36417,3.596,0.000,1.378,2.052,5.656,7.284,0.000,34.996
36689,3.597,0.000,1.378,2.052,5.656,7.284,0.000,35.058
36960,3.368,-3.000,1.378,2.054,5.656,7.289,-0.004,34.981
37229,3.226,-3.350,1.385,2.219,5.679,7.829,-0.001,36.446
37500,3.490,0.000,1.385,2.396,5.679,8.394,0.000,37.625
37772,3.523,0.000,1.385,2.396,5.679,8.394,0.000,36.365
38044,3.532,0.000,1.385,2.396,5.679,8.394,0.000,35.707
38316,3.535,0.000,1.385,2.396,5.679,8.394,0.000,35.323
38588,3.537,0.000,1.385,2.396,5.679,8.394,0.000,35.171
38860,3.538,0.000,1.385,2.396,5.679,8.394,0.000,35.101
39132,3.539,0.000,1.385,2.396,5.679,8.394,0.000,35.035
39404,3.539,0.000,1.385,2.396,5.679,8.394,0.000,35.045
39676,3.540,0.000,1.385,2.396,5.679,8.394,0.000,34.951
39948,3.540,0.000,1.385,2.396,5.679,8.394,0.000,34.985
40220,3.540,0.000,1.385,2.396,5.679,8.394,0.000,34.973
40492,3.541,0.000,1.385,2.396,5.679,8.394,0.000,34.976
40764,3.541,0.000,1.385,2.396,5.679,8.394,0.000,34.943
41034,3.523,0.000,1.385,2.404,5.679,8.422,0.001,35.004
41303,3.133,-3.350,1.391,2.576,5.703,8.968,-0.001,36.711
41574,3.396,0.000,1.391,2.739,5.703,9.476,0.000,37.898
41846,3.427,0.000,1.391,2.739,5.703,9.476,0.000,36.712
42118,3.435,0.000,1.391,2.739,5.703,9.476,0.000,35.935
42390,3.438,0.000,1.391,2.739,5.703,9.476,0.000,35.486
42662,3.439,0.000,1.391,2.739,5.703,9.476,0.000,35.241
42934,3.440,0.000,1.391,2.739,5.703,9.476,0.000,35.086
43206,3.441,0.000,1.391,2.739,5.703,9.476,0.000,34.975
43478,3.441,0.000,1.391,2.739,5.703,9.476,0.000,34.919
43750,3.441,0.000,1.391,2.739,5.703,9.476,0.000,34.976
44022,3.442,0.000,1.391,2.739,5.703,9.476,0.000,34.931
44294,3.442,0.000,1.391,2.739,5.703,9.476,0.000,34.934
44566,3.442,0.000,1.391,2.739,5.703,9.476,0.000,34.968
44838,3.442,0.000,1.391,2.739,5.703,9.476,0.000,35.003
45108,3.429,0.000,1.391,2.748,5.703,9.502,0.000,35.009
45377,2.970,-3.350,1.397,2.932,5.725,10.063,-0.001,37.175
45648,3.312,0.000,1.397,3.083,5.725,10.502,0.000,38.428
45920,3.324,0.000,1.397,3.083,5.725,10.502,0.000,36.849
46192,3.327,0.000,1.397,3.083,5.725,10.502,0.000,35.990
46464,3.328,0.000,1.397,3.083,5.725,10.502,0.000,35.493
46736,3.329,0.000,1.397,3.083,5.725,10.502,0.000,35.209
47008,3.329,0.000,1.397,3.083,5.725,10.502,0.000,35.050
47280,3.330,0.000,1.397,3.083,5.725,10.502,0.000,35.015
47552,3.330,0.000,1.397,3.083,5.725,10.502,0.000,34.926
47824,3.331,0.000,1.397,3.083,5.725,10.502,0.000,34.877
48096,3.331,0.000,1.397,3.083,5.725,10.502,0.000,34.928
48368,3.331,0.000,1.397,3.083,5.725,10.502,0.000,34.889
48640,3.331,0.000,1.397,3.083,5.725,10.502,0.000,34.868
48912,3.332,0.000,1.397,3.083,5.725,10.502,0.000,34.932
49183,3.317,0.000,1.397,3.091,5.725,10.526,0.000,34.997
49368,2.491,-3.350,1.403,3.210,5.748,10.846,-0.003,38.068