Folder: EE-292X-Battery-Modeling/data/T35/HPPC (part 2)

File: 5.csv
time_s,voltage_v,current_a,chargecapacity_ah,dischargecapacity_ah,charge_energy_wh,discharge_energy_wh,voltagedot_v_per_s,temp_degc
1,3.769,0.000,0.000,0.000,0.000,0.000,0.000,34.299
271,3.769,0.000,0.000,0.000,0.000,0.000,0.000,34.281
541,3.769,0.000,0.000,0.000,0.000,0.000,0.000,34.287
811,3.769,0.000,0.000,0.000,0.000,0.000,0.000,34.320
1081,3.769,0.000,0.000,0.000,0.000,0.000,0.000,34.316
1351,3.769,0.000,0.000,0.000,0.000,0.000,0.000,34.497
1621,3.769,0.000,0.000,0.000,0.000,0.000,0.000,34.439
1891,3.769,0.000,0.000,0.000,0.000,0.000,0.000,34.377
2161,3.770,0.000,0.000,0.000,0.000,0.000,0.000,34.316
2431,3.769,0.000,0.000,0.000,0.000,0.000,0.000,34.319
2701,3.770,0.000,0.000,0.000,0.000,0.000,0.000,34.290
2971,3.770,0.000,0.000,0.000,0.000,0.000,0.000,34.260
3241,3.769,0.000,0.000,0.000,0.000,0.000,0.000,34.266
3511,3.770,0.000,0.000,0.000,0.000,0.000,0.000,34.239
3780,3.895,1.625,0.081,0.000,0.315,0.000,0.000,34.646
4050,3.934,1.625,0.203,0.000,0.792,0.000,0.000,35.135
4320,3.972,1.625,0.325,0.000,1.274,0.000,0.000,35.420
4590,4.010,1.625,0.447,0.000,1.761,0.000,0.000,35.685
4860,4.048,1.625,0.569,0.000,2.252,0.000,0.000,35.927
5130,4.091,1.625,0.691,0.000,2.748,0.000,0.000,36.142
5400,4.140,1.625,0.813,0.000,3.249,0.000,0.000,36.285
5670,4.193,1.625,0.935,0.000,3.757,0.000,0.000,36.417
5939,4.200,1.203,1.040,0.000,4.202,0.000,0.000,36.409
6209,4.200,0.925,1.119,0.000,4.534,0.000,0.000,36.123
6479,4.200,0.715,1.181,0.000,4.791,0.000,0.000,35.636
6749,4.200,0.545,1.228,0.000,4.989,0.000,0.000,35.328
7019,4.200,0.406,1.263,0.000,5.137,0.000,0.000,35.045
7289,4.200,0.299,1.289,0.000,5.248,0.000,0.000,34.768
7559,4.200,0.218,1.309,0.000,5.328,0.000,0.000,34.633
7829,4.200,0.159,1.323,0.000,5.388,0.000,0.000,34.471
8099,4.200,0.119,1.333,0.000,5.431,0.000,0.000,34.408
8369,4.200,0.089,1.341,0.000,5.463,0.000,0.000,34.318
8639,4.200,0.067,1.347,0.000,5.488,0.000,0.000,34.257
8909,4.192,0.000,1.347,0.000,5.490,0.000,0.000,34.223
9179,4.190,0.000,1.347,0.000,5.490,0.000,0.000,34.229
9449,4.188,0.000,1.347,0.000,5.490,0.000,0.000,34.246
9719,4.187,0.000,1.347,0.000,5.490,0.000,0.000,34.138
9989,4.187,0.000,1.347,0.000,5.490,0.000,0.000,34.155
10259,4.186,0.000,1.347,0.000,5.490,0.000,0.000,34.161
10529,4.185,0.000,1.347,0.000,5.490,0.000,0.000,34.195
10799,4.185,0.000,1.347,0.000,5.490,0.000,0.000,34.205
11069,4.185,0.000,1.347,0.000,5.490,0.000,0.000,34.126
11339,4.184,0.000,1.347,0.000,5.490,0.000,0.000,34.192
11609,4.184,0.000,1.347,0.000,5.490,0.000,0.000,34.133
11879,4.184,0.000,1.347,0.000,5.490,0.000,0.000,34.222
12149,4.184,0.000,1.347,0.000,5.490,0.000,0.000,34.330
12418,3.897,-3.350,1.347,0.136,5.490,0.534,0.000,35.552
12687,4.035,0.000,1.347,0.335,5.490,1.304,0.000,36.854
12957,4.055,0.000,1.347,0.335,5.490,1.304,0.000,35.822
13227,4.057,0.000,1.347,0.335,5.490,1.304,0.000,35.124
13497,4.058,0.000,1.347,0.335,5.490,1.304,0.000,34.707
13767,4.058,0.000,1.347,0.335,5.490,1.304,0.000,34.517
14037,4.058,0.000,1.347,0.335,5.490,1.304,0.000,34.288
14307,4.058,0.000,1.347,0.335,5.490,1.304,0.000,34.228
14577,4.059,0.000,1.347,0.335,5.490,1.304,0.000,34.209
14847,4.059,0.000,1.347,0.335,5.490,1.304,0.000,34.167
15117,4.059,0.000,1.347,0.335,5.490,1.304,0.000,34.149
15387,4.059,0.000,1.347,0.335,5.490,1.304,0.000,34.156
15657,4.059,0.000,1.347,0.335,5.490,1.304,0.000,34.120
15927,4.059,0.000,1.347,0.335,5.490,1.304,0.000,34.161
16197,4.059,0.000,1.347,0.335,5.490,1.304,0.000,34.150
16463,3.791,-3.350,1.353,0.464,5.516,1.800,0.000,35.147
16732,3.902,0.000,1.353,0.678,5.516,2.603,0.000,36.681
17002,3.927,0.000,1.353,0.678,5.516,2.603,0.000,35.850
17272,3.941,0.000,1.353,0.678,5.516,2.603,0.000,35.281
17542,3.943,0.000,1.353,0.678,5.516,2.603,0.000,34.751
17812,3.943,0.000,1.353,0.678,5.516,2.603,0.000,34.532
18082,3.944,0.000,1.353,0.678,5.516,2.603,0.000,34.345
18352,3.944,0.000,1.353,0.678,5.516,2.603,0.000,34.261
18622,3.944,0.000,1.353,0.678,5.516,2.603,0.000,34.198
18892,3.944,0.000,1.353,0.678,5.516,2.603,0.000,34.169
19162,3.944,0.000,1.353,0.678,5.516,2.603,0.000,34.143
19432,3.944,0.000,1.353,0.678,5.516,2.603,0.000,34.163
19702,3.945,0.000,1.353,0.678,5.516,2.603,0.000,34.170
19972,3.945,0.000,1.353,0.678,5.516,2.603,0.000,34.193
20242,3.945,0.000,1.353,0.678,5.516,2.603,0.000,34.108
20507,3.693,-3.350,1.360,0.793,5.542,3.029,0.000,34.990
20776,3.799,0.000,1.360,1.022,5.542,3.866,0.001,36.621
21046,3.831,0.000,1.360,1.022,5.542,3.866,0.000,35.873
21316,3.836,0.000,1.360,1.022,5.542,3.866,0.000,35.384
21586,3.843,0.000,1.360,1.022,5.542,3.866,0.000,35.038
21856,3.853,0.000,1.360,1.022,5.542,3.866,0.000,34.766
22126,3.856,0.000,1.360,1.022,5.542,3.866,0.000,34.519
22396,3.857,0.000,1.360,1.022,5.542,3.866,0.000,34.321
22666,3.858,0.000,1.360,1.022,5.542,3.866,0.000,34.311
22936,3.858,0.000,1.360,1.022,5.542,3.866,0.000,34.420
23206,3.858,0.000,1.360,1.022,5.542,3.866,0.000,34.441
23476,3.858,0.000,1.360,1.022,5.542,3.866,0.000,34.357
23746,3.859,0.000,1.360,1.022,5.542,3.866,0.000,34.268
24016,3.859,0.000,1.360,1.022,5.542,3.866,0.000,34.231
24286,3.859,0.000,1.360,1.022,5.542,3.866,0.000,34.199
24551,3.613,-3.350,1.366,1.121,5.566,4.228,0.000,34.884
24820,3.687,0.000,1.366,1.365,5.566,5.098,0.002,36.579
25090,3.738,0.000,1.366,1.365,5.566,5.098,0.000,35.837
25360,3.742,0.000,1.366,1.365,5.566,5.098,0.000,35.334
25630,3.744,0.000,1.366,1.365,5.566,5.098,0.000,35.047
25900,3.746,0.000,1.366,1.365,5.566,5.098,0.000,34.781
26170,3.748,0.000,1.366,1.365,5.566,5.098,0.000,34.584
26440,3.750,0.000,1.366,1.365,5.566,5.098,0.000,34.461
26710,3.754,0.000,1.366,1.365,5.566,5.098,0.000,34.397
26980,3.758,0.000,1.366,1.365,5.566,5.098,0.000,34.299
27250,3.760,0.000,1.366,1.365,5.566,5.098,0.000,34.280
27520,3.762,0.000,1.366,1.365,5.566,5.098,0.000,34.201
27790,3.763,0.000,1.366,1.365,5.566,5.098,0.000,34.180
28060,3.764,0.000,1.366,1.365,5.566,5.098,0.000,34.219
28330,3.765,0.000,1.366,1.365,5.566,5.098,0.000,34.142
28596,3.524,-3.350,1.372,1.450,5.591,5.399,0.000,34.697
28866,3.434,-3.350,1.372,1.701,5.591,6.273,0.000,36.251
29135,3.648,0.000,1.372,1.709,5.591,6.298,0.000,35.505
29405,3.652,0.000,1.372,1.709,5.591,6.298,0.000,34.965
29675,3.654,0.000,1.372,1.709,5.591,6.298,0.000,34.643
29945,3.654,0.000,1.372,1.709,5.591,6.298,0.000,34.483
30215,3.655,0.000,1.372,1.709,5.591,6.298,0.000,34.378
30485,3.655,0.000,1.372,1.709,5.591,6.298,0.000,34.311
30755,3.656,0.000,1.372,1.709,5.591,6.298,0.000,34.234
31025,3.656,0.000,1.372,1.709,5.591,6.298,0.000,34.276
31295,3.656,0.000,1.372,1.709,5.591,6.298,0.000,34.211
31565,3.656,0.000,1.372,1.709,5.591,6.298,0.000,34.198
31835,3.657,0.000,1.372,1.709,5.591,6.298,0.000,34.194
32105,3.657,0.000,1.372,1.709,5.591,6.298,0.000,34.177
32375,3.657,0.000,1.372,1.709,5.591,6.298,0.000,34.114
32640,3.430,-3.350,1.378,1.779,5.614,6.540,-0.001,34.589
32910,3.349,-3.350,1.378,2.030,5.614,7.390,0.000,36.706
33179,3.582,0.000,1.378,2.052,5.614,7.465,0.000,35.789
33449,3.589,0.000,1.378,2.052,5.614,7.465,0.000,35.171
33719,3.591,0.000,1.378,2.052,5.614,7.465,0.000,34.706
33989,3.592,0.000,1.378,2.052,5.614,7.465,0.000,34.594
34259,3.593,0.000,1.378,2.052,5.614,7.465,0.000,34.505
34529,3.593,0.000,1.378,2.052,5.614,7.465,0.000,34.382
34799,3.594,0.000,1.378,2.052,5.614,7.465,0.000,34.378
35069,3.594,0.000,1.378,2.052,5.614,7.465,0.000,34.396
35339,3.594,0.000,1.378,2.052,5.614,7.465,0.000,34.387
35609,3.594,0.000,1.378,2.052,5.614,7.465,0.000,34.337
35879,3.595,0.000,1.378,2.052,5.614,7.465,0.000,34.343
36149,3.595,0.000,1.378,2.052,5.614,7.465,0.000,34.373
36419,3.595,0.000,1.378,2.052,5.614,7.465,0.000,34.300
36684,3.371,-3.350,1.385,2.107,5.637,7.652,-0.001,34.748
36954,3.268,-3.350,1.385,2.358,5.637,8.484,0.000,37.237
37223,3.510,0.000,1.385,2.396,5.637,8.605,0.000,36.474
37493,3.523,0.000,1.385,2.396,5.637,8.605,0.000,35.553
37763,3.530,0.000,1.385,2.396,5.637,8.605,0.000,34.991
38033,3.533,0.000,1.385,2.396,5.637,8.605,0.000,34.674
38303,3.534,0.000,1.385,2.396,5.637,8.605,0.000,34.465
38573,3.535,0.000,1.385,2.396,5.637,8.605,0.000,34.391
38843,3.536,0.000,1.385,2.396,5.637,8.605,0.000,34.299
39113,3.537,0.000,1.385,2.396,5.637,8.605,0.000,34.268
39383,3.537,0.000,1.385,2.396,5.637,8.605,0.000,34.281
39653,3.537,0.000,1.385,2.396,5.637,8.605,0.000,34.208
39923,3.538,0.000,1.385,2.396,5.637,8.605,0.000,34.213
40193,3.538,0.000,1.385,2.396,5.637,8.605,0.000,34.191
40463,3.538,0.000,1.385,2.396,5.637,8.605,0.000,34.215
40729,3.316,-3.350,1.391,2.436,5.660,8.740,-0.001,34.492
40999,3.171,-3.350,1.391,2.687,5.660,9.552,0.000,37.387
41268,3.404,0.000,1.391,2.739,5.660,9.716,0.000,37.090
41538,3.422,0.000,1.391,2.739,5.660,9.716,0.000,35.975
41808,3.427,0.000,1.391,2.739,5.660,9.716,0.000,35.315
42078,3.429,0.000,1.391,2.739,5.660,9.716,0.000,34.852
42348,3.430,0.000,1.391,2.739,5.660,9.716,0.000,34.603
42618,3.431,0.000,1.391,2.739,5.660,9.716,0.000,34.459
42888,3.431,0.000,1.391,2.739,5.660,9.716,0.000,34.327
43158,3.432,0.000,1.391,2.739,5.660,9.716,0.000,34.268
43428,3.432,0.000,1.391,2.739,5.660,9.716,0.000,34.230
43698,3.432,0.000,1.391,2.739,5.660,9.716,0.000,34.234
43968,3.433,0.000,1.391,2.739,5.660,9.716,0.000,34.173
44238,3.433,0.000,1.391,2.739,5.660,9.716,0.000,34.230
44508,3.433,0.000,1.391,2.739,5.660,9.716,0.000,34.258
44773,3.196,-3.350,1.397,2.764,5.682,9.797,-0.002,34.414
45043,2.965,-3.350,1.397,3.015,5.682,10.569,-0.001,37.995
45312,3.314,0.000,1.397,3.082,5.682,10.766,0.000,37.730
45582,3.321,0.000,1.397,3.082,5.682,10.766,0.000,36.308
45852,3.323,0.000,1.397,3.082,5.682,10.766,0.000,35.412
46122,3.324,0.000,1.397,3.082,5.682,10.766,0.000,34.913
46392,3.325,0.000,1.397,3.082,5.682,10.766,0.000,34.585
46662,3.325,0.000,1.397,3.082,5.682,10.766,0.000,34.409
46932,3.326,0.000,1.397,3.082,5.682,10.766,0.000,34.259
47202,3.326,0.000,1.397,3.082,5.682,10.766,0.000,34.241
47472,3.327,0.000,1.397,3.082,5.682,10.766,0.000,34.184
47742,3.327,0.000,1.397,3.082,5.682,10.766,0.000,34.185
48012,3.327,0.000,1.397,3.082,5.682,10.766,0.000,34.172
48282,3.327,0.000,1.397,3.082,5.682,10.766,0.000,34.144
48552,3.328,0.000,1.397,3.082,5.682,10.766,0.000,34.158
48818,3.019,-3.350,1.403,3.093,5.704,10.797,-0.033,34.354
48935,2.490,-3.350,1.403,3.202,5.704,11.092,-0.004,37.432