Folder: EE-292X-Battery-Modeling/data/T05/HPPC

Note: README.md
# ee292x
Machine Learning project for Autumn 2019 EE292X at Stanford

File: 3.csv
time_s,voltage_v,current_a,chargecapacity_ah,dischargecapacity_ah,charge_energy_wh,discharge_energy_wh,voltagedot_v_per_s,temp_degc
1,4.023,0.000,0.000,0.000,0.000,0.000,0.000,10.204
238,4.023,0.000,0.000,0.000,0.000,0.000,0.000,10.170
475,4.023,0.000,0.000,0.000,0.000,0.000,0.000,10.134
712,4.023,0.000,0.000,0.000,0.000,0.000,0.000,10.150
949,4.022,0.000,0.000,0.000,0.000,0.000,0.000,10.192
1186,4.023,0.000,0.000,0.000,0.000,0.000,0.000,10.180
1423,4.023,0.000,0.000,0.000,0.000,0.000,0.000,10.179
1660,4.023,0.000,0.000,0.000,0.000,0.000,0.000,10.153
1897,4.023,0.000,0.000,0.000,0.000,0.000,0.000,10.173
2134,4.023,0.000,0.000,0.000,0.000,0.000,0.000,10.247
2371,4.023,0.000,0.000,0.000,0.000,0.000,0.000,10.223
2608,4.023,0.000,0.000,0.000,0.000,0.000,0.000,10.230
2845,4.023,0.000,0.000,0.000,0.000,0.000,0.000,10.222
3082,4.023,0.000,0.000,0.000,0.000,0.000,0.000,10.210
3319,4.023,0.000,0.000,0.000,0.000,0.000,0.000,10.114
3556,4.023,0.000,0.000,0.000,0.000,0.000,0.000,10.068
3791,4.200,1.262,0.079,0.000,0.330,0.000,0.000,10.491
4028,4.200,0.947,0.151,0.000,0.632,0.000,0.000,10.568
4265,4.200,0.731,0.205,0.000,0.862,0.000,0.000,10.391
4502,4.200,0.571,0.248,0.000,1.041,0.000,0.000,10.237
4739,4.200,0.450,0.281,0.000,1.181,0.000,0.000,10.023
4976,4.200,0.358,0.308,0.000,1.292,0.000,0.000,9.839
5213,4.200,0.288,0.329,0.000,1.382,0.000,0.000,9.696
5450,4.200,0.236,0.346,0.000,1.454,0.000,0.000,9.589
5687,4.200,0.194,0.360,0.000,1.513,0.000,0.000,9.509
5924,4.200,0.162,0.372,0.000,1.562,0.000,0.000,9.417
6161,4.200,0.137,0.382,0.000,1.603,0.000,0.000,9.375
6398,4.200,0.116,0.390,0.000,1.638,0.000,0.000,9.386
6635,4.200,0.100,0.397,0.000,1.668,0.000,0.000,9.338
6872,4.200,0.087,0.403,0.000,1.694,0.000,0.000,9.248
7109,4.200,0.076,0.409,0.000,1.716,0.000,0.000,9.270
7346,4.200,0.067,0.413,0.000,1.736,0.000,0.000,9.287
7583,4.183,0.000,0.414,0.000,1.738,0.000,0.000,9.302
7820,4.180,0.000,0.414,0.000,1.738,0.000,0.000,9.260
8057,4.178,0.000,0.414,0.000,1.738,0.000,0.000,9.251
8294,4.176,0.000,0.414,0.000,1.738,0.000,0.000,9.213
8531,4.175,0.000,0.414,0.000,1.738,0.000,0.000,9.257
8768,4.174,0.000,0.414,0.000,1.738,0.000,0.000,9.401
9005,4.174,0.000,0.414,0.000,1.738,0.000,0.000,9.579
9242,4.173,0.000,0.414,0.000,1.738,0.000,0.000,9.729
9479,4.172,0.000,0.414,0.000,1.738,0.000,0.000,9.734
9716,4.172,0.000,0.414,0.000,1.738,0.000,0.000,9.677
9953,4.171,0.000,0.414,0.000,1.738,0.000,0.000,9.628
10190,4.171,0.000,0.414,0.000,1.738,0.000,0.000,9.536
10427,4.171,0.000,0.414,0.000,1.738,0.000,0.000,9.519
10664,4.170,0.000,0.414,0.000,1.738,0.000,0.000,9.403
10901,4.170,0.000,0.414,0.000,1.738,0.000,0.000,9.381
11137,3.710,-3.350,0.414,0.150,1.738,0.560,0.000,11.319
11374,3.959,0.000,0.414,0.335,1.738,1.245,0.001,12.408
11611,4.019,0.000,0.414,0.335,1.738,1.245,0.000,10.833
11848,4.034,0.000,0.414,0.335,1.738,1.245,0.000,9.970
12085,4.039,0.000,0.414,0.335,1.738,1.245,0.000,9.606
12322,4.041,0.000,0.414,0.335,1.738,1.245,0.000,9.440
12559,4.043,0.000,0.414,0.335,1.738,1.245,0.000,9.336
12796,4.044,0.000,0.414,0.335,1.738,1.245,0.000,9.290
13033,4.045,0.000,0.414,0.335,1.738,1.245,0.000,9.266
13270,4.046,0.000,0.414,0.335,1.738,1.245,0.000,9.299
13507,4.046,0.000,0.414,0.335,1.738,1.245,0.000,9.239
13744,4.047,0.000,0.414,0.335,1.738,1.245,0.000,9.275
13981,4.047,0.000,0.414,0.335,1.738,1.245,0.000,9.270
14218,4.047,0.000,0.414,0.335,1.738,1.245,0.000,9.286
14455,4.047,0.000,0.414,0.335,1.738,1.245,0.000,9.290
14692,4.048,0.000,0.414,0.335,1.738,1.245,0.000,9.341
14929,4.048,0.000,0.414,0.335,1.738,1.245,0.000,9.348
15161,3.652,-3.350,0.420,0.459,1.765,1.702,0.000,10.613
15397,3.586,-3.350,0.420,0.679,1.765,2.497,0.000,12.178
15634,3.901,0.000,0.420,0.679,1.765,2.497,0.000,10.862
15871,3.909,0.000,0.420,0.679,1.765,2.497,0.000,10.212
16108,3.914,0.000,0.420,0.679,1.765,2.497,0.000,9.833
16345,3.918,0.000,0.420,0.679,1.765,2.497,0.000,9.723
16582,3.922,0.000,0.420,0.679,1.765,2.497,0.000,9.613
16819,3.927,0.000,0.420,0.679,1.765,2.497,0.000,9.634
17056,3.930,0.000,0.420,0.679,1.765,2.497,0.000,9.569
17293,3.932,0.000,0.420,0.679,1.765,2.497,0.000,9.568
17530,3.933,0.000,0.420,0.679,1.765,2.497,0.000,9.590
17767,3.933,0.000,0.420,0.679,1.765,2.497,0.000,9.607
18004,3.934,0.000,0.420,0.679,1.765,2.497,0.000,9.667
18241,3.934,0.000,0.420,0.679,1.765,2.497,0.000,9.638
18478,3.934,0.000,0.420,0.679,1.765,2.497,0.000,9.695
18715,3.934,0.000,0.420,0.679,1.765,2.497,0.000,9.691
18952,3.934,0.000,0.420,0.679,1.765,2.497,0.000,9.688
19184,3.589,-3.350,0.426,0.768,1.790,2.821,0.000,10.528
19421,3.510,-3.350,0.426,0.988,1.790,3.603,0.000,12.275
19657,3.809,0.000,0.426,1.022,1.790,3.721,0.000,11.514
19894,3.820,0.000,0.426,1.022,1.790,3.721,0.000,10.973
20131,3.824,0.000,0.426,1.022,1.790,3.721,0.000,10.817
20368,3.826,0.000,0.426,1.022,1.790,3.721,0.000,10.701
20605,3.828,0.000,0.426,1.022,1.790,3.721,0.000,10.597
20842,3.830,0.000,0.426,1.022,1.790,3.721,0.000,10.568
21079,3.831,0.000,0.426,1.022,1.790,3.721,0.000,10.536
21316,3.833,0.000,0.426,1.022,1.790,3.721,0.000,10.442
21553,3.836,0.000,0.426,1.022,1.790,3.721,0.000,10.358
21790,3.839,0.000,0.426,1.022,1.790,3.721,0.000,10.341
22027,3.842,0.000,0.426,1.022,1.790,3.721,0.000,10.341
22264,3.845,0.000,0.426,1.022,1.790,3.721,0.000,10.301
22501,3.847,0.000,0.426,1.022,1.790,3.721,0.000,10.240
22738,3.849,0.000,0.426,1.022,1.790,3.721,0.000,10.279
22975,3.849,0.000,0.426,1.022,1.790,3.721,0.000,10.255
23208,3.531,-3.350,0.433,1.077,1.815,3.917,-0.001,10.707
23445,3.435,-3.350,0.433,1.297,1.815,4.684,0.000,12.384
23681,3.710,0.000,0.433,1.365,1.815,4.917,0.000,11.894
23918,3.725,0.000,0.433,1.365,1.815,4.917,0.000,11.054
24155,3.729,0.000,0.433,1.365,1.815,4.917,0.000,10.712
24392,3.731,0.000,0.433,1.365,1.815,4.917,0.000,10.476
24629,3.733,0.000,0.433,1.365,1.815,4.917,0.000,10.416
24866,3.734,0.000,0.433,1.365,1.815,4.917,0.000,10.313
25103,3.735,0.000,0.433,1.365,1.815,4.917,0.000,10.267
25340,3.736,0.000,0.433,1.365,1.815,4.917,0.000,10.250
25577,3.736,0.000,0.433,1.365,1.815,4.917,0.000,10.209
25814,3.737,0.000,0.433,1.365,1.815,4.917,0.000,10.165
26051,3.738,0.000,0.433,1.365,1.815,4.917,0.000,10.130
26288,3.738,0.000,0.433,1.365,1.815,4.917,0.000,10.183
26525,3.739,0.000,0.433,1.365,1.815,4.917,0.000,10.128
26762,3.740,0.000,0.433,1.365,1.815,4.917,0.000,10.047
26999,3.741,0.000,0.433,1.365,1.815,4.917,0.000,10.086
27231,3.476,-3.350,0.439,1.386,1.840,4.988,-0.002,10.166
27468,3.349,-3.350,0.439,1.606,1.840,5.737,0.000,11.938
27704,3.616,0.000,0.439,1.709,1.840,6.079,0.000,11.846
27941,3.635,0.000,0.439,1.709,1.840,6.079,0.000,10.801
28178,3.641,0.000,0.439,1.709,1.840,6.079,0.000,10.362
28415,3.644,0.000,0.439,1.709,1.840,6.079,0.000,10.101
28652,3.645,0.000,0.439,1.709,1.840,6.079,0.000,9.994
28889,3.646,0.000,0.439,1.709,1.840,6.079,0.000,9.903
29126,3.647,0.000,0.439,1.709,1.840,6.079,0.000,9.840
29363,3.647,0.000,0.439,1.709,1.840,6.079,0.000,9.793
29600,3.648,0.000,0.439,1.709,1.840,6.079,0.000,9.779
29837,3.648,0.000,0.439,1.709,1.840,6.079,0.000,9.741
30074,3.648,0.000,0.439,1.709,1.840,6.079,0.000,9.695
30311,3.649,0.000,0.439,1.709,1.840,6.079,0.000,9.704
30548,3.649,0.000,0.439,1.709,1.840,6.079,0.000,9.808
30785,3.649,0.000,0.439,1.709,1.840,6.079,0.000,9.931
31022,3.650,0.000,0.439,1.709,1.840,6.079,0.000,10.084
31255,3.653,0.000,0.445,1.717,1.863,6.107,0.000,10.195
31491,3.258,-3.350,0.445,1.915,1.863,6.763,0.000,12.024
31727,3.520,0.000,0.445,2.052,1.863,7.206,0.000,12.462
31964,3.561,0.000,0.445,2.052,1.863,7.206,0.000,11.133
32201,3.572,0.000,0.445,2.052,1.863,7.206,0.000,10.488
32438,3.577,0.000,0.445,2.052,1.863,7.206,0.000,10.086
32675,3.579,0.000,0.445,2.052,1.863,7.206,0.000,9.847
32912,3.581,0.000,0.445,2.052,1.863,7.206,0.000,9.745
33149,3.583,0.000,0.445,2.052,1.863,7.206,0.000,9.558
33386,3.584,0.000,0.445,2.052,1.863,7.206,0.000,9.544
33623,3.584,0.000,0.445,2.052,1.863,7.206,0.000,9.481
33860,3.585,0.000,0.445,2.052,1.863,7.206,0.000,9.381
34097,3.585,0.000,0.445,2.052,1.863,7.206,0.000,9.335
34334,3.585,0.000,0.445,2.052,1.863,7.206,0.000,9.278
34571,3.586,0.000,0.445,2.052,1.863,7.206,0.000,9.216
34808,3.586,0.000,0.445,2.052,1.863,7.206,0.000,9.200
35045,3.586,0.000,0.445,2.052,1.863,7.206,0.000,9.182
35281,3.574,0.000,0.445,2.061,1.863,7.234,0.000,9.233
35515,3.161,-3.350,0.451,2.224,1.887,7.762,-0.001,11.057
35751,3.424,0.000,0.451,2.396,1.887,8.294,0.001,12.494
35988,3.466,0.000,0.451,2.396,1.887,8.294,0.000,10.649
36225,3.488,0.000,0.451,2.396,1.887,8.294,0.000,9.746
36462,3.500,0.000,0.451,2.396,1.887,8.294,0.000,9.319
36699,3.508,0.000,0.451,2.396,1.887,8.294,0.000,9.050
36936,3.512,0.000,0.451,2.396,1.887,8.294,0.000,8.878
37173,3.515,0.000,0.451,2.396,1.887,8.294,0.000,8.880
37410,3.517,0.000,0.451,2.396,1.887,8.294,0.000,8.786
37647,3.519,0.000,0.451,2.396,1.887,8.294,0.000,8.733
37884,3.520,0.000,0.451,2.396,1.887,8.294,0.000,8.690
38121,3.521,0.000,0.451,2.396,1.887,8.294,0.000,8.658
38358,3.522,0.000,0.451,2.396,1.887,8.294,0.000,8.623
38595,3.523,0.000,0.451,2.396,1.887,8.294,0.000,8.608
38832,3.524,0.000,0.451,2.396,1.887,8.294,0.000,8.583
39069,3.525,0.000,0.451,2.396,1.887,8.294,0.000,8.464
39305,3.242,-3.000,0.451,2.401,1.887,8.310,-0.004,8.551
39538,3.009,-3.350,0.458,2.533,1.910,8.722,-0.001,10.559
39774,3.266,0.000,0.458,2.739,1.910,9.310,0.003,14.106
40011,3.377,0.000,0.458,2.739,1.910,9.310,0.000,11.109
40248,3.384,0.000,0.458,2.739,1.910,9.310,0.000,9.719
40485,3.391,0.000,0.458,2.739,1.910,9.310,0.000,9.063
40722,3.398,0.000,0.458,2.739,1.910,9.310,0.000,8.667
40959,3.403,0.000,0.458,2.739,1.910,9.310,0.000,8.415
41196,3.407,0.000,0.458,2.739,1.910,9.310,0.000,8.316
41433,3.410,0.000,0.458,2.739,1.910,9.310,0.000,8.366
41670,3.413,0.000,0.458,2.739,1.910,9.310,0.000,8.505
41907,3.414,0.000,0.458,2.739,1.910,9.310,0.000,8.642
42144,3.416,0.000,0.458,2.739,1.910,9.310,0.000,8.724
42381,3.417,0.000,0.458,2.739,1.910,9.310,0.000,8.717
42618,3.418,0.000,0.458,2.739,1.910,9.310,0.000,8.659
42855,3.418,0.000,0.458,2.739,1.910,9.310,0.000,8.692
43092,3.419,0.000,0.458,2.739,1.910,9.310,0.000,8.599
43329,3.420,0.000,0.458,2.739,1.910,9.310,0.000,8.646
43501,2.492,-3.350,0.464,2.787,1.933,9.439,-0.008,9.763

File: 5.csv
time_s,voltage_v,current_a,chargecapacity_ah,dischargecapacity_ah,charge_energy_wh,discharge_energy_wh,voltagedot_v_per_s,temp_degc
1,4.024,0.000,0.000,0.000,0.000,0.000,0.000,9.951
236,4.024,0.000,0.000,0.000,0.000,0.000,0.000,9.934
471,4.024,0.000,0.000,0.000,0.000,0.000,0.000,9.921
706,4.024,0.000,0.000,0.000,0.000,0.000,0.000,9.950
941,4.024,0.000,0.000,0.000,0.000,0.000,0.000,9.940
1176,4.024,0.000,0.000,0.000,0.000,0.000,0.000,9.934
1411,4.024,0.000,0.000,0.000,0.000,0.000,0.000,9.947
1646,4.024,0.000,0.000,0.000,0.000,0.000,0.000,9.914
1881,4.024,0.000,0.000,0.000,0.000,0.000,0.000,9.913
2116,4.024,0.000,0.000,0.000,0.000,0.000,0.000,9.968
2351,4.024,0.000,0.000,0.000,0.000,0.000,0.000,9.987
2586,4.024,0.000,0.000,0.000,0.000,0.000,0.000,10.036
2821,4.024,0.000,0.000,0.000,0.000,0.000,0.000,10.041
3056,4.024,0.000,0.000,0.000,0.000,0.000,0.000,9.965
3291,4.024,0.000,0.000,0.000,0.000,0.000,0.000,9.916
3526,4.024,0.000,0.000,0.000,0.000,0.000,0.000,9.883
3760,4.200,1.382,0.069,0.000,0.289,0.000,0.000,10.376
3995,4.200,1.033,0.147,0.000,0.615,0.000,0.000,10.723
4230,4.200,0.795,0.206,0.000,0.864,0.000,0.000,10.678
4465,4.200,0.612,0.252,0.000,1.056,0.000,0.000,10.569
4700,4.200,0.471,0.287,0.000,1.203,0.000,0.000,10.331
4935,4.200,0.366,0.314,0.000,1.317,0.000,0.000,10.085
5170,4.200,0.288,0.335,0.000,1.407,0.000,0.000,9.861
5405,4.200,0.229,0.352,0.000,1.477,0.000,0.000,9.680
5640,4.200,0.186,0.365,0.000,1.534,0.000,0.000,9.523
5875,4.200,0.152,0.376,0.000,1.580,0.000,0.000,9.388
6110,4.200,0.127,0.385,0.000,1.618,0.000,0.000,9.292
6345,4.200,0.107,0.393,0.000,1.650,0.000,0.000,9.229
6580,4.200,0.091,0.399,0.000,1.677,0.000,0.000,9.131
6815,4.200,0.078,0.405,0.000,1.700,0.000,0.000,9.105
7050,4.200,0.068,0.410,0.000,1.720,0.000,0.000,9.085
7284,4.185,0.000,0.411,0.000,1.725,0.000,0.000,9.058
7519,4.182,0.000,0.411,0.000,1.725,0.000,0.000,9.031
7754,4.180,0.000,0.411,0.000,1.725,0.000,0.000,9.034
7989,4.178,0.000,0.411,0.000,1.725,0.000,0.000,9.006
8224,4.177,0.000,0.411,0.000,1.725,0.000,0.000,8.991
8459,4.176,0.000,0.411,0.000,1.725,0.000,0.000,8.994
8694,4.175,0.000,0.411,0.000,1.725,0.000,0.000,9.103
8929,4.175,0.000,0.411,0.000,1.725,0.000,0.000,9.225
9164,4.174,0.000,0.411,0.000,1.725,0.000,0.000,9.399
9399,4.174,0.000,0.411,0.000,1.725,0.000,0.000,9.430
9634,4.173,0.000,0.411,0.000,1.725,0.000,0.000,9.396
9869,4.173,0.000,0.411,0.000,1.725,0.000,0.000,9.373
10104,4.172,0.000,0.411,0.000,1.725,0.000,0.000,9.333
10339,4.172,0.000,0.411,0.000,1.725,0.000,0.000,9.283
10574,4.172,0.000,0.411,0.000,1.725,0.000,0.000,9.179
10808,3.744,-3.350,0.411,0.089,1.725,0.337,0.000,10.498
11043,3.712,-3.350,0.411,0.308,1.725,1.152,0.000,13.408
11277,4.018,0.000,0.411,0.335,1.725,1.252,0.000,12.688
11512,4.035,0.000,0.411,0.335,1.725,1.252,0.000,11.420
11747,4.041,0.000,0.411,0.335,1.725,1.252,0.000,10.579
11982,4.043,0.000,0.411,0.335,1.725,1.252,0.000,10.045
12217,4.044,0.000,0.411,0.335,1.725,1.252,0.000,9.681
12452,4.045,0.000,0.411,0.335,1.725,1.252,0.000,9.450
12687,4.045,0.000,0.411,0.335,1.725,1.252,0.000,9.309
12922,4.046,0.000,0.411,0.335,1.725,1.252,0.000,9.160
13157,4.046,0.000,0.411,0.335,1.725,1.252,0.000,9.135
13392,4.047,0.000,0.411,0.335,1.725,1.252,0.000,9.084
13627,4.047,0.000,0.411,0.335,1.725,1.252,0.000,9.074
13862,4.047,0.000,0.411,0.335,1.725,1.252,0.000,9.044
14097,4.047,0.000,0.411,0.335,1.725,1.252,0.000,9.007
14332,4.047,0.000,0.411,0.335,1.725,1.252,0.000,9.082
14567,4.048,0.000,0.411,0.335,1.725,1.252,0.000,9.057
14797,3.725,-3.350,0.417,0.367,1.751,1.371,-0.001,9.405
15032,3.626,-3.350,0.417,0.585,1.751,2.172,0.000,12.273
15266,3.892,0.000,0.417,0.679,1.751,2.509,0.000,12.741
15501,3.907,0.000,0.417,0.679,1.751,2.509,0.000,11.609
15736,3.912,0.000,0.417,0.679,1.751,2.509,0.000,10.839
15971,3.916,0.000,0.417,0.679,1.751,2.509,0.000,10.341
16206,3.920,0.000,0.417,0.679,1.751,2.509,0.000,10.075
16441,3.924,0.000,0.417,0.679,1.751,2.509,0.000,9.761
16676,3.928,0.000,0.417,0.679,1.751,2.509,0.000,9.599
16911,3.931,0.000,0.417,0.679,1.751,2.509,0.000,9.529
17146,3.932,0.000,0.417,0.679,1.751,2.509,0.000,9.414
17381,3.932,0.000,0.417,0.679,1.751,2.509,0.000,9.398
17616,3.933,0.000,0.417,0.679,1.751,2.509,0.000,9.328
17851,3.933,0.000,0.417,0.679,1.751,2.509,0.000,9.374
18086,3.933,0.000,0.417,0.679,1.751,2.509,0.000,9.427
18321,3.933,0.000,0.417,0.679,1.751,2.509,0.000,9.390
18556,3.934,0.000,0.417,0.679,1.751,2.509,0.000,9.402
18789,4.092,2.250,0.421,0.687,1.766,2.540,0.002,9.547
19022,3.559,-3.350,0.423,0.863,1.777,3.173,0.000,11.586
19256,3.780,0.000,0.423,1.022,1.777,3.735,0.001,13.252
19491,3.815,0.000,0.423,1.022,1.777,3.735,0.000,12.134
19726,3.821,0.000,0.423,1.022,1.777,3.735,0.000,11.431
19961,3.823,0.000,0.423,1.022,1.777,3.735,0.000,11.183
20196,3.825,0.000,0.423,1.022,1.777,3.735,0.000,10.981
20431,3.827,0.000,0.423,1.022,1.777,3.735,0.000,10.789
20666,3.829,0.000,0.423,1.022,1.777,3.735,0.000,10.608
20901,3.830,0.000,0.423,1.022,1.777,3.735,0.000,10.494
21136,3.832,0.000,0.423,1.022,1.777,3.735,0.000,10.344
21371,3.835,0.000,0.423,1.022,1.777,3.735,0.000,10.293
21606,3.838,0.000,0.423,1.022,1.777,3.735,0.000,10.209
21841,3.841,0.000,0.423,1.022,1.777,3.735,0.000,10.108
22076,3.844,0.000,0.423,1.022,1.777,3.735,0.000,10.130
22311,3.846,0.000,0.423,1.022,1.777,3.735,0.000,10.068
22546,3.847,0.000,0.423,1.022,1.777,3.735,0.000,10.043
22781,3.848,0.000,0.423,1.022,1.777,3.735,0.000,10.005
23011,3.499,-3.350,0.430,1.140,1.802,4.154,0.000,11.307
23246,3.418,-3.350,0.430,1.359,1.802,4.910,0.000,13.576
23480,3.715,0.000,0.430,1.365,1.802,4.932,0.000,12.745
23715,3.724,0.000,0.430,1.365,1.802,4.932,0.000,11.828
23950,3.727,0.000,0.430,1.365,1.802,4.932,0.000,11.236
24185,3.729,0.000,0.430,1.365,1.802,4.932,0.000,10.822
24420,3.730,0.000,0.430,1.365,1.802,4.932,0.000,10.544
24655,3.731,0.000,0.430,1.365,1.802,4.932,0.000,10.385
24890,3.732,0.000,0.430,1.365,1.802,4.932,0.000,10.253
25125,3.733,0.000,0.430,1.365,1.802,4.932,0.000,10.164
25360,3.733,0.000,0.430,1.365,1.802,4.932,0.000,10.115
25595,3.734,0.000,0.430,1.365,1.802,4.932,0.000,10.040
25830,3.734,0.000,0.430,1.365,1.802,4.932,0.000,9.962
26065,3.735,0.000,0.430,1.365,1.802,4.932,0.000,9.923
26300,3.735,0.000,0.430,1.365,1.802,4.932,0.000,9.892
26535,3.736,0.000,0.430,1.365,1.802,4.932,0.000,9.910
26770,3.737,0.000,0.430,1.365,1.802,4.932,0.000,9.807
27000,3.433,-3.350,0.436,1.417,1.826,5.113,-0.001,10.263
27235,3.339,-3.350,0.436,1.636,1.826,5.852,0.000,12.737
27470,3.619,0.000,0.436,1.709,1.826,6.094,0.000,12.864
27705,3.633,0.000,0.436,1.709,1.826,6.094,0.000,11.803
27940,3.638,0.000,0.436,1.709,1.826,6.094,0.000,11.004
28175,3.640,0.000,0.436,1.709,1.826,6.094,0.000,10.510
28410,3.641,0.000,0.436,1.709,1.826,6.094,0.000,10.158
28645,3.642,0.000,0.436,1.709,1.826,6.094,0.000,9.984
28880,3.642,0.000,0.436,1.709,1.826,6.094,0.000,9.842
29115,3.643,0.000,0.436,1.709,1.826,6.094,0.000,9.691
29350,3.643,0.000,0.436,1.709,1.826,6.094,0.000,9.595
29585,3.643,0.000,0.436,1.709,1.826,6.094,0.000,9.531
29820,3.643,0.000,0.436,1.709,1.826,6.094,0.000,9.477
30055,3.644,0.000,0.436,1.709,1.826,6.094,0.000,9.394
30290,3.644,0.000,0.436,1.709,1.826,6.094,0.000,9.366
30525,3.644,0.000,0.436,1.709,1.826,6.094,0.000,9.510
30760,3.644,0.000,0.436,1.709,1.826,6.094,0.000,9.611
30992,3.647,0.000,0.442,1.717,1.850,6.122,0.000,9.863
31226,3.255,-3.350,0.442,1.914,1.850,6.774,0.000,12.477
31460,3.516,0.000,0.442,2.052,1.850,7.220,0.000,13.894
31695,3.558,0.000,0.442,2.052,1.850,7.220,0.000,12.452
31930,3.569,0.000,0.442,2.052,1.850,7.220,0.000,11.442
32165,3.573,0.000,0.442,2.052,1.850,7.220,0.000,10.783
32400,3.576,0.000,0.442,2.052,1.850,7.220,0.000,10.284
32635,3.578,0.000,0.442,2.052,1.850,7.220,0.000,9.942
32870,3.579,0.000,0.442,2.052,1.850,7.220,0.000,9.672
33105,3.580,0.000,0.442,2.052,1.850,7.220,0.000,9.460
33340,3.581,0.000,0.442,2.052,1.850,7.220,0.000,9.368
33575,3.581,0.000,0.442,2.052,1.850,7.220,0.000,9.263
33810,3.581,0.000,0.442,2.052,1.850,7.220,0.000,9.214
34045,3.582,0.000,0.442,2.052,1.850,7.220,0.000,9.127
34280,3.582,0.000,0.442,2.052,1.850,7.220,0.000,9.068
34515,3.582,0.000,0.442,2.052,1.850,7.220,0.000,8.936
34750,3.582,0.000,0.442,2.052,1.850,7.220,0.000,8.913
34984,3.338,-3.000,0.442,2.061,1.850,7.248,-0.002,8.930
35215,3.183,-3.350,0.448,2.192,1.873,7.673,-0.001,10.885
35449,3.384,0.000,0.448,2.396,1.873,8.312,0.002,14.037
35684,3.460,0.000,0.448,2.396,1.873,8.312,0.000,12.429
35919,3.484,0.000,0.448,2.396,1.873,8.312,0.000,11.142
36154,3.497,0.000,0.448,2.396,1.873,8.312,0.000,10.282
36389,3.504,0.000,0.448,2.396,1.873,8.312,0.000,9.647
36624,3.509,0.000,0.448,2.396,1.873,8.312,0.000,9.236
36859,3.511,0.000,0.448,2.396,1.873,8.312,0.000,8.987
37094,3.513,0.000,0.448,2.396,1.873,8.312,0.000,8.799
37329,3.515,0.000,0.448,2.396,1.873,8.312,0.000,8.649
37564,3.516,0.000,0.448,2.396,1.873,8.312,0.000,8.614
37799,3.517,0.000,0.448,2.396,1.873,8.312,0.000,8.474
38034,3.518,0.000,0.448,2.396,1.873,8.312,0.000,8.392
38269,3.519,0.000,0.448,2.396,1.873,8.312,0.000,8.369
38504,3.520,0.000,0.448,2.396,1.873,8.312,0.000,8.283
38739,3.521,0.000,0.448,2.396,1.873,8.312,0.000,8.267
38974,3.521,0.000,0.448,2.396,1.873,8.312,0.000,8.265
39205,3.098,-3.350,0.455,2.469,1.896,8.544,-0.001,9.343
39440,2.854,-3.350,0.455,2.688,1.896,9.197,-0.001,13.944
39674,3.373,0.000,0.455,2.739,1.896,9.341,0.000,13.805
39909,3.382,0.000,0.455,2.739,1.896,9.341,0.000,11.919
40144,3.389,0.000,0.455,2.739,1.896,9.341,0.000,10.621
40379,3.397,0.000,0.455,2.739,1.896,9.341,0.000,9.803
40614,3.402,0.000,0.455,2.739,1.896,9.341,0.000,9.185
40849,3.406,0.000,0.455,2.739,1.896,9.341,0.000,8.726
41084,3.409,0.000,0.455,2.739,1.896,9.341,0.000,8.480
41319,3.411,0.000,0.455,2.739,1.896,9.341,0.000,8.384
41554,3.412,0.000,0.455,2.739,1.896,9.341,0.000,8.337
41789,3.413,0.000,0.455,2.739,1.896,9.341,0.000,8.385
42024,3.414,0.000,0.455,2.739,1.896,9.341,0.000,8.501
42259,3.415,0.000,0.455,2.739,1.896,9.341,0.000,8.474
42494,3.416,0.000,0.455,2.739,1.896,9.341,0.000,8.462
42729,3.417,0.000,0.455,2.739,1.896,9.341,0.000,8.466
42964,3.417,0.000,0.455,2.739,1.896,9.341,0.000,8.397
43195,3.419,0.000,0.461,2.747,1.919,9.365,0.000,8.629
43244,2.492,-3.350,0.461,2.793,1.919,9.488,-0.006,9.771